acc_x,acc_y,acc_z,tilt_angle,temperature,humidity,fire,vibration,water_float,ultrasonic_distance,landslide,high_temp,vibration_alert,fire_alert,flood_alert
9.347869435625483,-1.8121122541711703,5.809382605499844,9.521891293604355,39.56694461760405,73.48933047329675,0,0,0,95.20474695779566,1,1,0,0,0
-1.1541711817937461,2.6807537478259373,3.538541322366223,2.9186558161876475,28.93289887200861,70.7292104923979,0,0,0,20.808849765147645,0,0,0,0,0
7.236578274822691,-2.310065725751482,4.6194631612045285,7.596345752065757,27.95020860661829,85.6551468983258,0,0,0,59.61883156935291,1,0,0,0,0
0.06442731613099895,5.574111709876107,3.6993939156522715,5.574484032916569,22.022262586533977,37.395738195595044,0,0,0,142.35852621316542,1,0,0,0,0
-9.718135446612342,-3.525279440693831,0.97978130855107,10.337782726178853,24.25569022078587,46.643213219866766,0,0,0,52.16054622169218,1,0,0,0,0
7.437479411681181,9.270542789096268,1.4024511520441794,11.885245626559271,15.647499827917134,85.22999604280078,0,0,0,69.05615451126094,1,0,0,0,0
0.3452648649447063,7.424959432294969,2.389094569048469,7.432982604459082,32.63126437222407,23.664587733790867,0,0,0,185.43617625051692,1,0,0,0,0
1.282437734987603,9.76334611121613,8.293892563964672,9.847211474905942,15.991763445968155,49.85837073971695,0,0,1,28.805142382652157,1,0,0,0,0
-5.879916312551192,5.386162899282088,2.8491119609169697,7.973968059893921,28.86792969767881,63.518363792565005,0,0,0,30.189418535175836,1,0,0,0,0
4.719784898092152,-2.230677529186746,1.7939892925540788,5.220372757138846,42.82518709827238,47.320187741521124,0,0,0,21.586704037512533,1,1,0,0,0
0.8371626891344537,-6.950408596600579,5.1768233935180925,7.000644329472685,36.73529782956648,21.885830867870396,0,1,0,141.6298599852905,1,0,1,0,0
9.866158534683123,1.868663815997742,6.0187078289172105,10.041563060038008,28.011136023768362,21.901410091039292,0,0,0,79.39228595585342,1,0,0,0,0
-0.07418345620323308,-5.424400330725831,6.83946131351495,5.424907569088414,21.035251862402465,50.52397968469232,0,0,0,31.59067212117687,1,0,0,0,0
-4.3267466390152975,2.6151445543541314,3.980308708276107,5.055661926829981,26.520730769274543,30.129376983695103,0,0,1,58.527426477239224,1,0,0,0,0
0.5228594010734966,-1.9789746170332094,8.72192545023505,2.0468811612188613,24.585508644506284,34.13867601105844,0,0,0,174.62384347867427,0,0,0,0,0
-5.03858361795624,9.840293644518997,6.339079104150449,11.055256843940713,38.664177269568334,78.48076345859842,1,0,1,11.772110360613304,1,1,0,1,1
5.11553985327668,-9.81703372057854,2.598656762606833,11.069909623002264,40.01992678786441,78.00248827977613,0,0,0,128.22723597983818,1,1,0,0,0
6.881845023224159,2.2849087264830743,1.3942408417892946,7.251248086504393,38.907641934331025,48.39403602501794,0,0,0,71.6343124995235,1,1,0,0,0
1.8429098655192693,8.914948973223154,4.6792624971486525,9.103440666451384,44.96205582682775,31.526486896164933,0,0,0,114.4757239487397,1,1,0,0,0
0.6669295043687544,-0.9527456781359511,5.790496344269095,1.1629786287822685,15.856007563246333,84.36922086964655,0,0,0,115.16904932546352,0,0,0,0,0
1.457403116286848,-2.227639237875567,8.0204959275328,2.6620293795308596,36.378581001202434,67.87128583954643,0,0,0,21.014913325224487,0,0,0,0,0
-2.818847293018827,-5.540980178780385,1.3233923266488863,6.2167806301169,20.189410525022886,67.18433601654905,0,0,0,168.9476541863019,1,0,0,0,0
6.694988689032279,-0.46827394167559433,8.685584689892396,6.711345172968125,15.752228637982071,43.65988596700427,0,0,0,176.3997393059861,1,0,0,0,0
0.7334027214697834,-9.57091473872275,0.485446393298239,9.59897330383618,11.106904054370153,81.67223760657808,0,0,0,180.25346511810315,1,0,0,0,0
6.284270350172946,-9.352541646219308,4.771161134748799,11.26774551888395,33.81441586326897,34.632915575768706,0,0,0,35.14022812955055,1,0,0,0,0
4.569682223207483,-7.548701013523987,9.226287013954886,8.824108034961752,16.16753940423296,48.12962872379311,0,0,0,157.2768235024912,1,0,0,0,0
0.5260459540896871,-6.611937852909717,7.62909156931346,6.632830957936022,16.132271625331768,48.811587447087575,0,1,0,46.88932372864731,1,0,1,0,0
0.4982773004733829,-9.76087467333036,8.009979395261542,9.773584534684758,28.017787613349945,28.03038881759207,0,0,0,122.71117347074569,1,0,0,0,0
-3.673896280402225,3.925072988781981,1.49969385723666,5.376217243231454,41.148450867404875,81.05504869687064,0,0,0,114.27041064822619,1,1,0,0,0
-2.417538561579744,-7.174270836122414,1.4672095301154247,7.570644274218783,34.23900475196739,37.06410933518123,0,0,0,24.64824126861159,1,0,0,0,0
1.2935398146758743,-4.111559505436457,1.0875270453977985,4.3102397635046446,18.514758648880786,74.85782867949392,0,0,0,120.01922365541245,0,0,0,0,0
3.764312708310186,-8.776015717213873,7.286341802562135,9.549267094114109,24.842194534111847,43.59506718594244,0,0,0,24.690161707149606,1,0,0,0,0
0.2724993209081781,-3.0057597275291625,2.0873019917749334,3.0180867150450803,25.60584691138171,81.18962189326626,0,0,0,118.08375404373125,0,0,0,0,0
3.913090149394014,6.915250207317204,3.962777036430677,7.945625208067965,23.407975602569625,25.39119918991968,0,0,0,31.808376909675335,1,0,0,0,0
-4.644210332415117,2.0510791108834994,1.2057749360802752,5.076969089015018,43.22702004459292,52.530441608816986,0,0,0,93.84625318998789,1,1,0,0,0
3.2170236752175754,6.478422686919387,7.788348092923647,7.233201354677071,10.511111583403743,86.4132147643422,0,0,0,198.95243871035413,1,0,0,0,0
-7.005307306015829,-9.30969684878664,5.62497784398501,11.650956435762115,42.35375053041445,80.8089142227183,0,0,0,80.18616025570137,1,1,0,0,0
7.957691376138815,6.551736603350314,6.521668463325811,10.307769135829265,12.67599642751717,93.50090270868114,0,0,0,41.28238008348894,1,0,0,0,0
1.076062568234665,8.141681137804841,2.6659584006260078,8.212483327255095,40.792796033101794,39.953475012929175,0,0,0,95.01080167167085,1,1,0,0,0
9.224037754886147,-7.760564041959947,2.5351212967042187,12.05442768251263,41.42510605975748,46.985915008150606,0,0,0,147.57672649644505,1,1,0,0,0
-1.984444145123934,-2.0377213099494895,9.510770134984314,2.8443499612633683,18.887815451640712,28.284169909060587,0,0,0,149.9615363091646,0,0,0,0,0
0.07969100738365142,0.9446397624143383,4.922346976045869,0.9479952201314302,37.134584127335536,72.4581620121976,0,0,0,175.08425690744636,0,0,0,0,0
3.5736028558359116,6.114699122068689,8.04265507787301,7.082385383800164,40.559693916273986,32.887038856160224,0,0,0,108.7356146111343,1,1,0,0,0
-2.6367734176963005,-1.067988652258439,1.0941261801325723,2.844850403381982,26.244076217819288,46.320553341427114,0,0,0,167.488610469843,0,0,0,0,0
-1.1645556394493646,2.3092497660291826,5.082226775941342,2.5862761490759554,28.107421050794347,70.82583185334116,0,0,0,52.1925636429321,0,0,0,0,0
6.538683699592919,-5.342559409594103,7.79973765407693,8.443774367447572,39.9993295577264,69.36377585580013,0,0,0,45.24275933593603,1,1,0,0,0
3.5125854727127326,1.598396084966204,9.378525405380524,3.859161404702817,34.85471738508128,93.30632801053669,0,0,0,184.11859398816262,0,0,0,0,0
-5.623687519854743,8.156846317176214,7.529972165291983,9.907573020826097,34.66617264352122,90.44715088738583,0,0,0,95.24057947256448,1,0,0,0,0
-5.42356804035313,-3.692867633604804,9.419776601308246,6.561429847804961,33.9362393968393,84.82353251005681,0,0,0,18.576331365598506,1,0,0,0,0
8.990325993834489,0.8810103926908077,0.9972651255969265,9.033390326308574,21.345756635171476,61.20433098718356,0,0,0,115.7218160953337,1,0,0,0,0
8.076039802895732,-5.545538531725585,5.942881456203371,9.796704369572927,25.717090724684443,47.39939284217154,0,0,0,171.04199974699262,1,0,0,0,0
8.136853411466944,2.1831964664367813,6.306974190774987,8.424650155986496,15.32418334003588,71.06826331408949,0,0,0,126.71399179065027,1,0,0,0,0
5.540808990876995,1.8735202285201336,6.029275037877855,5.848986435277268,10.440498788782856,33.10718606327747,0,0,0,138.67050858705082,1,0,0,0,0
-6.431937691292675,8.858641159705215,4.978484739526957,10.947389901757163,31.29053118624734,25.578144217268232,0,0,0,156.85917806542366,1,0,0,0,0
-8.132850281160186,-6.490492645671397,6.203685954632188,10.405275031409877,32.88473367303607,37.745301099068556,0,0,0,100.28144450298656,1,0,0,0,0
2.386542808967725,-3.6382044740004122,6.112620612076996,4.35110541973786,41.80047050059949,82.0736795180103,0,0,0,172.6849927869445,0,1,0,0,0
0.42091663316806915,-1.9274887712023094,6.3196177686420505,1.9729125107790593,39.80588711453223,65.55680801139032,0,0,0,170.03989701937468,0,1,0,0,0
-5.328762546869868,1.7494989707868651,4.6219403579083815,5.608605613671489,11.838164101966814,36.6513233531817,0,0,0,180.5073695748171,1,0,0,0,0
4.980493953518133,5.453413500919472,3.9408777220056996,7.38546131484293,41.254969831338464,88.45078398618963,0,0,0,53.40439814848406,1,1,0,0,0
-3.347760270745357,-5.786365068808572,9.324085374849078,6.6850220298746255,11.789558589964155,83.52205408314185,0,0,0,160.29382814364786,1,0,0,0,0
-8.4141201795407,1.8396631306526139,4.208508050432006,8.612884466311886,39.01655139457392,52.45444100853071,0,0,0,89.6071790215934,1,1,0,0,0
-9.866045390686299,-2.4270466380692524,5.727250904625725,10.160187352329958,41.71742675282616,22.160878698254546,0,0,0,166.73843843994504,1,1,0,0,0
-7.587616335751544,-7.6868817410113195,4.852179769695306,10.80092924515557,31.161462542227685,78.60349903750101,0,0,0,119.363985620313,1,0,0,0,0
-7.4823133269004005,4.734093458656027,3.310155231376717,8.854188477619003,21.846060448620854,75.14497190259544,0,0,0,148.8118803120256,1,0,0,0,0
-1.9187784053846801,-9.641780431848982,5.441415229638052,9.83085146184991,38.33665967718673,91.3937434401508,0,0,0,159.19018813477885,1,1,0,0,0
4.969423496136226,4.4378751554169575,9.177914343473356,6.662575011136301,29.080574450312117,58.09038414844912,0,0,0,112.72448425578753,1,0,0,0,0
-7.106892888118612,-8.081127969198027,9.83947472425914,10.76162421652724,11.576319032891941,21.290252310039428,0,0,0,132.59585554359364,1,0,0,0,0
6.236995091783278,-6.485930407541867,2.207570215936933,8.998188763657101,20.75995990318021,85.24685214508584,0,0,0,163.13185030359242,1,0,0,0,0
-9.145090485286836,-0.545469951052695,4.462855141997387,9.161343648809668,27.193934018697306,94.2857360749905,0,0,0,184.18523813185448,1,0,0,0,0
-4.564040974986574,-9.258674697903366,0.7779904181276474,10.32247679498251,28.050734343625926,73.09539721943808,0,0,0,185.52754256595503,1,0,0,0,0
4.167777498754289,-0.846916952791144,8.475813961112515,4.252956336955223,10.111243927608301,47.88023199951982,0,0,0,154.82565303331916,0,0,0,0,0
-5.517013192117672,7.7902689572694115,1.6944773483474487,9.545979519598598,12.49534414183038,40.15862727903067,0,0,0,130.65241103108187,1,0,0,0,0
-5.192189905410636,-5.395452295229166,0.30266545828510827,7.487973122544029,28.83371942807969,64.10283112874848,0,0,0,94.4803225891416,1,0,0,0,0
8.394444293140285,5.7414394431013385,8.967532507455163,10.170094486750617,31.05821620917926,74.78943780404278,0,0,0,94.25155100866743,1,0,0,0,0
7.331401874549513,-9.78133047917267,4.078327388975564,12.223906061032226,22.74095655352575,22.584077894901437,0,0,0,83.4976509961825,1,0,0,0,0
-8.32444989006028,7.386292813015707,5.64617935692777,11.128961653799157,17.696302681820228,60.67903889337428,0,0,1,5.6013312119152765,1,0,0,0,1
-0.791214999233512,8.050595004521309,9.237337528578877,8.089381997522155,10.714955007208843,79.8311700111785,0,0,0,123.0268229812564,1,0,0,0,0
5.621839503382674,-3.669463794330074,4.369888955589392,6.713422669525078,10.589781569155473,54.31635341438174,0,0,0,115.02557733474801,1,0,0,0,0
-8.693207896640816,-8.471672116169337,2.7175573249932357,12.138413898780158,36.27630814024149,41.12856584958763,0,0,0,78.72065683829852,1,0,0,0,0
3.626014744131247,6.322246694980091,1.420818225992344,7.288263592711496,39.866099789900304,52.28372625792483,0,0,0,86.95974057417884,1,1,0,0,0
-9.64109766130315,5.445016297713707,3.0616107259836896,11.072441763096021,30.934198445973013,63.33692495877194,0,0,0,76.67521564535878,1,0,0,0,0
6.282897054258537,-6.9260447157087395,3.070233804771472,9.35119729224058,18.382994620698895,21.585135890163116,0,0,1,7.683432401577955,1,0,0,0,1
3.1346474252418606,-6.384127271408257,4.096440060365542,7.112179377526559,20.825553161835394,92.67235218494453,0,0,0,129.87866537138592,1,0,0,0,0
-6.988467225888666,6.357545453660563,5.865375917032305,9.447595374627351,19.936846670403916,60.656262267263465,0,0,0,52.50053038808163,1,0,0,0,0
-7.870204399207113,-9.870360736347042,7.682444543159277,12.623950980216943,35.16006022639993,41.06789099310504,0,0,0,65.40352999432349,1,0,0,0,0
5.051442906522114,-3.54518414637562,2.8712147710279665,6.171337461974156,29.559605535747085,93.0217634006542,0,0,1,73.99331539519534,1,0,0,0,0
0.03602773972348494,8.16058062336213,5.63174473442094,8.160660151508763,33.99276953797263,52.7831432439625,0,0,0,91.8481295170521,1,0,0,0,0
-1.2693135154348845,-9.467778542646645,0.42055775443175014,9.552485924253743,42.78481883752396,60.6713522828979,0,0,0,94.83163695044111,1,1,0,0,0
-9.55750026113346,3.322538853199685,4.789251295038809,10.118551065868456,27.905053644563566,23.98099400482885,0,0,0,143.2093787990591,1,0,0,0,0
4.28532207604623,2.9154967606781472,0.6485415158829133,5.183059584547909,15.651442212706145,92.83798482002625,0,0,0,176.29728827959863,1,0,0,0,0
-9.101272661919499,8.284052442764139,5.0392573361350115,12.306855363620299,40.21245969314031,34.630005094212905,0,0,0,73.77195133598258,1,1,0,0,0
7.752150850133315,-0.67986685041976,1.800225979750723,7.781906047847299,34.611164299162425,29.390510329432793,0,0,0,183.87083107704518,1,0,0,0,0
2.452370574459879,6.507379355472757,4.339266682906752,6.954143190250666,36.336155020608516,45.92928538272503,0,0,0,40.02004356297632,1,0,0,0,0
-9.313197947682072,-3.6452063081158492,5.507859414775564,10.001159184886376,16.102885463999048,85.89596998807288,0,0,0,190.02429878386747,1,0,0,0,0
3.7985232898717474,-6.9553808836378135,7.862853157154139,7.925030121089283,20.096996707897876,90.93164101668202,0,0,0,188.7211698044207,1,0,0,0,0
-4.118800258316764,-3.643562226151098,7.477205663621219,5.499096404296381,20.920432904124574,27.785754542404035,0,0,0,129.23156336121997,1,0,0,0,0
1.485804525010959,-2.0576628985897427,7.050337869831978,2.5380290957307374,11.693345046120916,62.66922277484957,1,0,0,193.04470147732795,0,0,0,1,0
-0.6054580507680445,-9.637010517610952,1.719412361529702,9.656011141655956,43.57775406397912,40.81537032260832,0,0,0,158.8214524904101,1,1,0,0,0
8.11063494605295,2.788894010115987,6.699887245827114,8.576731838398363,19.39842074617787,64.15378583493765,0,0,0,179.98201192223092,1,0,0,0,0
-4.026409787395102,2.172769776702502,7.460707738448896,4.57524909470325,26.101720489417815,74.05359969821666,0,0,0,144.00099753042545,0,0,0,0,0
-1.4068417433733043,-3.9450561475435926,2.048792250028038,4.188397270814832,44.32030015604514,46.35340587411204,0,0,0,145.69170533146828,0,1,0,0,0
2.0694204848035405,-1.4281940890610318,7.080134255153861,2.5144063909705188,11.275398377164034,32.262943462591416,0,0,0,44.90657494163341,0,0,0,0,0
-7.775313099306825,-8.739075762244731,8.465956087216636,11.697304773771847,19.58836243408738,54.32588103166729,0,0,0,70.6546916790401,1,0,0,0,0
-9.510176744515967,-0.6651792218516146,6.910027396855367,9.533410990255032,35.21264619436269,94.48332317655128,0,0,0,24.127858078137027,1,0,0,0,0
-0.8409093436097965,-0.700753537500912,7.53501948026281,1.0946159346959559,36.59606857909385,60.571854667282274,0,0,0,31.07045365212497,0,0,0,0,0
9.728908020713412,4.957378463336372,1.1185795051731344,10.919123247965153,13.105494349869518,28.891231949468533,0,0,0,120.502728236004,1,0,0,0,0
-0.6286754854866583,-6.0773155740957385,4.073476273668451,6.109746103824487,36.50429271786736,68.38644991178417,0,0,0,98.23810718153614,1,0,0,0,0
-2.9177991659760227,1.4323768687748846,6.721245968747882,3.2504238903828706,43.26282247598207,88.63948120523601,0,0,0,187.32998682594447,0,1,0,0,0
-7.963614965565453,1.0658792061322124,8.907037717269702,8.03462891500554,40.1798012048217,24.356400405734327,0,0,0,66.98296408429712,1,1,0,0,0
-8.886100173769986,-8.548867381309254,2.151603324732686,12.330689753679165,29.79904641946374,87.3975449256124,0,0,0,68.91640720293526,1,0,0,0,0
-5.118267280180008,-3.955946965618491,8.635469906615365,6.468862059601164,15.574567260913273,72.98605088855312,1,0,0,184.2435113013743,1,0,0,1,0
1.9688489718823572,3.053157753702431,7.168527509156968,3.632924241306924,20.97612324521797,41.393328152568344,0,0,0,194.043543877908,0,0,0,0,0
8.119832220400806,-8.995783107937319,8.29767403395647,12.118407032795584,32.75727087777109,80.21805812403025,0,0,0,179.88653683394867,1,0,0,0,0
-2.09864305697643,-8.513178744700333,9.227161192677018,8.768039405694578,39.288368399841836,49.40466743786707,0,0,0,108.42494642978806,1,1,0,0,0
-5.965460971482814,2.265509079518001,2.868045069681505,6.38116415645791,27.306531178152426,29.694048531612744,0,0,0,31.990731358705744,1,0,0,0,0
6.037906020038605,9.448391895267104,6.936690087220255,11.212868433784797,40.98311262410702,64.91195527888144,0,0,0,86.83929016157757,1,1,0,0,0
-1.8475381479165183,-5.919706207466726,3.8856979610579483,6.201315891867377,37.45003283871876,35.72447915521873,0,0,0,43.50738069588727,1,0,0,0,0
1.7144890545942033,-6.557789649670944,3.9824853567799847,6.778206090674337,33.41173915371115,24.044691463050064,0,0,0,162.0736867259123,1,0,0,0,0
-6.660175279380147,-6.027926561888517,9.167547333772038,8.982974640261851,37.57052585128738,88.2243590333478,0,1,1,169.36239467648696,1,0,1,0,0
-1.8932770731252617,1.439802773098311,7.723365297333211,2.378556306048554,32.25682829223336,84.21639755537514,0,0,0,174.69698807468617,0,0,0,0,0
8.508612915438334,5.994837568966085,4.429459024771598,10.408389463459331,33.706301419054085,81.61119493738306,0,0,0,24.787634675732583,1,0,0,0,0
9.5508737684589,4.763687470356997,9.667851594413792,10.672952171553687,29.762325924886593,52.48812885184516,0,0,0,98.44715017508977,1,0,0,0,0
-9.15350258931085,-4.439146855586184,1.5377539564185605,10.173132971606199,33.67300859029842,43.8135716918315,0,1,0,115.11204510270586,1,0,1,0,0
-2.7777608146773325,5.2542229821331325,2.031256005179247,5.943299949483693,42.73694699636708,89.07393005726996,0,0,0,47.81412688823869,1,1,0,0,0
3.495031189358798,-1.9257556140117078,2.0584442911784158,3.9904608379845534,29.749265532609304,34.33522231551592,0,0,1,8.571346859216007,0,0,0,0,1
-6.520015449247454,-7.7160974034233965,8.188386088798833,10.101918659222255,38.16272634412175,77.37421399016033,0,0,0,165.6072198946675,1,1,0,0,0
-8.396154942542132,-5.600069618301515,7.210258529736046,10.092383145174303,15.499272122429762,91.38625426160485,0,0,0,108.40196298442106,1,0,0,0,0
4.332113456005715,8.535069887687627,4.1161787637498035,9.571552903443509,16.316650234211476,52.992732691336656,0,0,1,9.05838585282709,1,0,0,0,1
8.6393085082133,9.319552554833152,2.2423039939346476,12.707938909295395,10.857626814839433,28.860025254450928,0,0,0,36.41247520392295,1,0,0,0,0
-9.558313097255454,5.315779515120031,7.610201345265504,10.937040784349984,21.13249679743665,79.37550801431945,0,0,0,154.75898118095603,1,0,0,0,0
6.762098075574578,3.250439557509644,5.8813362662783675,7.502754674165542,37.17223331607512,45.539220809841495,0,0,0,73.38207876838413,1,0,0,0,0
4.174416804757332,5.994953289121387,1.3546982538046917,7.305150278987267,15.211043995469822,60.209843054587736,0,0,0,141.0687368532719,1,0,0,0,0
2.385377403879154,1.1766561199221215,5.59067307711444,2.659801681232538,27.521325861573153,75.62475792488601,0,0,0,135.61426491539592,0,0,0,0,0
-0.9580130528730422,-0.7979858663057922,6.450209397487342,1.246824146501395,44.39105656118994,48.94912322339819,0,0,0,137.5021944775523,0,1,0,0,0
6.454335987597634,-6.217895443741492,3.4746782391487865,8.96218035915921,35.95824135397643,55.495079555564146,0,0,0,22.910773923544937,1,0,0,0,0
1.0804799033662285,0.6456823665328137,2.4554266757997474,1.2587066934078444,35.3027142559917,55.49916335830067,0,1,0,89.98786256805711,0,0,1,0,0
-6.402723211325842,-8.752003285574794,7.7352213920716775,10.84400415121475,40.24856773238888,94.30833088361398,0,1,0,125.17366293006917,1,1,1,0,0
0.6855478050727015,-0.27639783318281097,8.22721682501569,0.7391695037189723,21.186233660765073,72.05504113095962,0,0,0,80.43824941609735,0,0,0,0,0
-3.761619078815867,5.081688265275313,7.921069339009026,6.322446814291785,21.82804985226919,25.266293030392678,0,0,0,142.5496690757002,1,0,0,0,0
0.49350157581232246,-1.1765060713225335,7.29861626415296,1.2758175187651357,20.032406943027205,67.5975392580377,0,0,0,23.160001966456036,0,0,0,0,0
-9.853389140513285,0.49438138647870566,4.927344950168859,9.865783826421586,12.973398579496017,39.92150986912908,0,1,0,150.56210263168214,1,0,1,0,0
-1.8639794835219252,5.993700708061633,1.720397670395934,6.276851734174481,18.77190344759186,80.88725773579156,0,0,0,134.37116636772367,1,0,0,0,0
3.1957803231266517,-0.4814726011569057,4.093784947266249,3.2318458718429444,27.27970142893319,38.77636516323013,0,0,0,133.3618195297154,0,0,0,0,0
0.9985482609810052,3.9170037838191174,8.82109363532046,4.042278722696082,14.760906548431706,51.54482003604701,0,0,0,72.99956990839634,0,0,0,0,0
-9.070813633559915,-5.214229299693766,1.8351855464457472,10.462688333528881,32.153053313649636,28.309184156686122,0,0,0,60.711056236245255,1,0,0,0,0
-8.43074249325543,2.745484968493642,3.316622145513926,8.866516040689675,40.85809079479266,88.08018621595278,0,0,0,22.786304993065777,1,1,0,0,0
4.432853919097068,-1.2764072291577406,6.9443131130284375,4.612961010316517,20.914503477755368,40.904852581211976,0,0,0,84.263437711303,0,0,0,0,0
8.373171186464099,3.7881148531475475,1.9756030708290162,9.19020183992004,31.00100341933997,72.2345465550901,0,0,0,97.97907986445496,1,0,0,0,0
-3.0357098686209323,5.661700393322315,8.082201481217147,6.424203121803402,24.301161298955808,50.65007666795816,0,0,1,68.12940239538213,1,0,0,0,0
-3.77676154836851,9.160632736432433,8.971395990967165,9.908638651451191,26.5138188097925,29.53678411114587,0,0,0,192.17220884648938,1,0,0,0,0
-4.118593273947018,-8.261491694822196,8.535586266597067,9.231200115901384,31.673747575485443,65.25438631698904,0,0,0,128.77513816463016,1,0,0,0,0
-4.954543936090432,-0.37881181593739655,6.3527920590832,4.969004327482947,28.232774383297304,78.73659501846097,0,0,0,42.149005329914246,0,0,0,0,0
0.15863582975502766,8.75264811268491,5.066719942345326,8.754085578229674,12.554168246868219,55.38396278594949,0,0,0,96.41280524207193,1,0,0,0,0
-4.291338605835861,-1.7167420499207147,7.641647660576624,4.621989863241075,30.92955944004105,51.42044429283465,0,0,0,7.076304897882931,0,0,0,0,0
8.987723120697925,-4.400286264711513,7.524284386854381,10.007081797693914,11.19473226059683,51.72275774176313,0,0,0,150.00078522191575,1,0,0,0,0
-0.9789426173801417,9.19579724151097,3.5641737063447896,9.24775732570356,35.41788191426039,61.86339616756128,0,0,0,154.03257615165285,1,0,0,0,0
7.543050076348759,-7.534134452374177,9.655103946103525,10.661181285427828,14.202962571899523,66.98191465027392,0,0,0,73.70258735773913,1,0,0,0,0
-5.163697092074811,7.513895510640413,1.6828249171312912,9.117148315318996,37.004609899114385,66.44958540687014,0,0,0,38.29313987035217,1,0,0,0,0
2.7607528888338777,-1.3957107464309857,9.369539424726332,3.0935036772093127,10.745657571770401,78.06770651720473,0,0,0,52.204568812324936,0,0,0,0,0
2.480527683078673,-1.8109472044655561,7.854680228162114,3.0712452464564373,42.841361566741526,27.95338702078741,0,0,0,134.91841917105558,0,1,0,0,0
6.034335224880735,-1.7998320041834255,5.725940306426359,6.297030796297518,32.59924258409029,34.36058669889832,0,0,0,25.732690592449895,1,0,0,0,0
-6.3232683694322445,-5.398136011932846,8.33115749118333,8.314060095716687,30.42732007241569,91.51592058538589,0,0,0,50.91991683397748,1,0,0,0,0
6.330340029727452,9.748811344592731,4.123259478025509,11.62379144360521,29.392908092385017,35.31826899486163,0,0,0,104.41702033678166,1,0,0,0,0
-0.16597499690378115,3.18282780680593,9.446707275567197,3.1871524198529095,39.53779934021788,41.935118898482,0,0,0,163.5792851314048,0,1,0,0,0
5.119292101504433,-6.675481756091443,2.7182832853296817,8.412443657846119,10.680220145322643,29.375195715207234,0,0,1,65.08614258095788,1,0,0,0,0
-7.979746579956251,-5.464287783724789,7.0130811948237,9.671338917837977,25.864743477401234,80.54425051642485,0,1,0,103.83997903513999,1,0,1,0,0
-1.7345676173930347,-4.265085715769805,4.2806161532724945,4.604311130035869,21.163581148177958,83.25848694443795,0,0,0,127.82548172229016,0,0,0,0,0
-0.35512987893038783,-5.8932061713105055,6.332717181301275,5.903896696968989,23.48076837871796,68.65914361862987,0,0,0,101.95019430421338,1,0,0,0,0
-1.720050400389697,0.7130104230816858,7.214947611290904,1.861976703211907,27.448326965439172,93.46521243629162,0,0,0,197.0349070787071,0,0,0,0,0
6.379851183588244,8.80985537079938,7.676845040384052,10.877318271482865,21.085248266623378,52.483106133551736,0,0,0,89.85002533522523,1,0,0,0,0
-1.51509112598373,4.856268432342986,8.000636997687389,5.0871253382441495,43.90913323454949,56.235073177179366,0,0,0,95.81133475415041,1,1,0,0,0
-1.4665190706594284,1.4211140238845736,4.9081998465890075,2.042117345670713,19.18953325589003,64.973100928598,0,0,0,160.58583923646955,0,0,0,0,0
-6.864145222315119,-0.1753209442731407,6.403212161660466,6.866383842062159,34.00317298994251,32.74794344351713,0,0,0,158.72171839819467,1,0,0,0,0
-8.482168210634528,-3.4051171248535823,1.1910730380409638,9.140131300340826,29.99294079347499,24.468511128216548,0,0,0,113.92774095107772,1,0,0,0,0
-8.07150485765005,4.889800148220722,6.031113363438794,9.437125418081914,29.403009603794523,89.13431976983028,0,0,0,90.86188996138624,1,0,0,0,0
-8.767442611013616,-7.389644611034784,9.245126057376488,11.46625036421291,40.70894618300626,41.03074508916143,0,0,0,108.89273999804146,1,1,0,0,0
-5.923670669748291,-0.7176093749650665,1.0121907911496921,5.966978918906444,22.534528713561144,77.39775698255792,0,0,1,113.04546971242208,1,0,0,0,0
-1.7534051455954174,2.088080682327112,5.138293920679873,2.7266298869681864,10.290748087382331,56.85414185086131,0,0,0,151.3270519182773,0,0,0,0,0
6.162430410718848,5.019533810475114,9.664010008596206,7.948035495734483,12.178168726458583,41.9055386371913,0,0,0,123.94618946880487,1,0,0,0,0
-5.484923907545993,-6.4430707480409755,1.9391104651797475,8.461533604248753,40.43196988850851,42.915576584290996,0,0,0,66.09112391705132,1,1,0,0,0
7.937554099781167,0.30479649769042005,0.25342211916726426,7.94340392979969,20.416672470749265,38.999172630766516,0,0,0,104.08114904002656,1,0,0,0,0
0.5823305842450903,-4.648901635345426,4.440614313622486,4.685231619084014,14.689319523540588,66.37546091064186,0,0,0,172.29286041738885,0,0,0,0,0
-0.1915023507954352,-4.494451672516446,2.6824843878656894,4.498529647223196,11.344710713162588,67.09975924909426,0,0,0,62.74928726884387,0,0,0,0,0
-7.7750741417334845,-9.353005301642652,2.7554600435789878,12.162667720611635,44.75158275516181,76.3648236200927,0,1,0,190.83520368347175,1,1,1,0,0
-1.086726549798092,6.306343166860959,3.5182053191303684,6.399292049301233,16.291581365702683,81.08783850237793,0,0,1,12.153546858937975,1,0,0,0,1
8.48611111641874,3.8147954060362377,7.488706297026059,9.304125207139084,31.09066973859503,86.18171871656953,0,0,0,147.52626878446154,1,0,0,0,0
-2.6943820194111616,9.415170913795073,1.217809842787044,9.793116858411265,24.692932052346436,56.903464721702754,0,0,0,23.310683062983998,1,0,0,0,0
5.594953272650837,-6.996354274955268,0.7220827950576518,8.958374588273879,28.202071606233904,77.05605075655089,0,0,0,192.45717626687386,1,0,0,0,0
8.589045125040368,-9.488896662438858,1.1717741735895255,12.79886151305744,35.91851400384933,84.2709533154162,0,0,0,104.75817885498323,1,0,0,0,0
6.713553859923284,6.516135616960845,4.450365251642787,9.355844633634984,38.5730601136346,35.20441205981547,0,0,0,55.98456790628727,1,1,0,0,0
9.874414896412137,4.37612614839848,6.344196629465587,10.800673572198303,35.42476573889539,36.14884234951244,1,0,0,130.95758072499814,1,0,0,1,0
-7.866424410357828,4.845192879517612,0.3654995401420573,9.238859618134788,28.833374661194124,21.464834941067217,0,0,0,184.66749475121665,1,0,0,0,0
1.0687276877033547,-7.574938833141971,8.22665256486904,7.649959293767909,35.91436830078665,37.961241769498244,0,0,0,146.57279610708707,1,0,0,0,0
7.20645829303994,-2.2947820042913936,2.8590461387780404,7.563006384801203,30.81062530216301,56.75070481005575,0,0,0,124.78275371973518,1,0,0,0,0
-2.80409424587182,1.320314020015175,3.4688828172137187,3.099382785520382,21.519457390977976,36.57768019925997,0,0,0,141.24917070412764,0,0,0,0,0
-3.478688741050737,1.8983205824047094,5.108822168606312,3.9629403718318192,27.274901453334955,46.879517180671044,0,0,0,42.10557099290278,0,0,0,0,0
-2.014936324876258,0.085351649835399,9.246650329864256,2.0167432403346406,30.731612516069408,24.323030752357912,0,1,0,172.32984795962625,0,0,1,0,0
6.834451921610331,-4.036528485364636,6.812736483798801,7.937461513731154,44.36001834681193,20.81873342599894,0,0,0,65.88083307555524,1,1,0,0,0
-6.377722385397229,-6.7097630510300865,4.255778232896549,9.257227610152269,33.88524083680813,86.59320082275799,0,0,0,189.93707081091398,1,0,0,0,0
-5.534714551131312,-0.2874635801568246,4.502644526118687,5.542174706053686,44.119293562797615,91.01205524102707,0,0,1,14.707578551728483,1,1,0,0,1
5.320321838879421,-2.390600238803639,6.410288508364858,5.832734690608285,27.308545355736538,79.63174817159944,0,0,0,134.3293299881058,1,0,0,0,0
-1.2512756387262254,8.333245782512051,9.058155391933614,8.426664583085328,34.298425793533696,78.51182959717542,0,0,0,25.7689422276936,1,0,0,0,0
9.96146322831044,-2.6627786217731853,2.599524708087044,10.3112142659123,35.728332733035955,50.35700920953494,0,0,0,56.89859123510519,1,0,0,0,0
0.7420384668851803,-6.167184570297,4.8812683621112765,6.211665365298319,16.66111939608454,86.47346165554771,0,1,0,41.185625913309174,1,0,1,0,0
2.367932515535763,-5.231202708849711,2.5560785426718855,5.742176083960512,34.16372424954177,30.840509154606224,0,0,0,101.66506214955409,1,0,0,0,0
7.58223026925722,-1.2068707866024049,5.1522162865210115,7.677678877863721,37.03974991089525,66.1853328366152,0,1,0,75.95260138405709,1,0,1,0,0
-6.744438295932865,5.043817748650865,6.824141050202586,8.42184928678086,39.34433910546825,23.489137982815848,0,1,0,102.20551755998906,1,1,1,0,0
2.5704041778823807,9.461605162896344,4.686594506153301,9.804537209691336,21.39421367555103,32.66880232742466,0,0,1,13.248678827518182,1,0,0,0,1
4.059137310404786,-7.065576682268732,2.5802801100869615,8.148556286713607,43.43323308167738,52.846911498711805,0,0,0,104.85178214316994,1,1,0,0,0
6.186048527138354,0.4713804355666298,1.7533877704306866,6.203982261027637,24.008935026353498,36.01441598208173,0,0,0,37.8478786764604,1,0,0,0,0
-1.9920303434498248,-3.3168053710519345,7.742050412534414,3.8690286582892854,30.60999012164889,62.096558854835,0,0,0,175.22884411267296,0,0,0,0,0
5.939571040809037,6.950852749826588,7.154537863719502,9.14291299852455,39.97115443627994,28.517738874761307,0,0,0,118.32924404048853,1,1,0,0,0
-6.100476418913374,1.628860023767274,6.2751277484950165,6.314190170936038,16.822500026259213,49.3828703207289,0,0,0,66.50528639145392,1,0,0,0,0
-4.387403167601502,-7.3572257815844395,5.478976431472972,8.56610049884371,15.153177355873451,42.45339739406111,0,0,0,133.34731815510088,1,0,0,0,0
-3.757999425546849,8.102625953231907,4.245748271150969,8.931691162394596,24.63073859795029,33.81340893110169,0,0,1,21.731480771326893,1,0,0,0,0
9.871812428886386,2.1122024385563307,7.435766364207179,10.095250357101554,16.407535689855628,27.059883134739344,0,1,0,177.01052198068155,1,0,1,0,0
-3.4849749108986128,6.540909689720319,9.85410007698129,7.4113797432509125,36.71276345616333,52.80309656260695,0,0,0,118.5813483705824,1,0,0,0,0
5.969156467231564,8.09166310840737,3.274505567910428,10.055140018431032,30.34938363507061,47.276529170940016,0,0,0,181.82083684364017,1,0,0,0,0
2.099221050268369,-0.9442382868696875,7.940694072676049,2.3018068903104005,25.49810228682172,36.98587051180853,0,0,1,189.09266824990348,0,0,0,0,0
-0.2934358637579475,1.6038783346604788,2.1986301661668466,1.6305000210158367,29.51139545168922,31.595113362360046,0,0,1,185.4942659368311,0,0,0,0,0
8.240822640920218,-1.2546920611233077,4.433801380514982,8.335790902328892,43.974236059927726,76.00129988180652,0,0,0,101.5017323609961,1,1,0,0,0
-1.1279845103480177,3.0437599220449343,3.2027479155135135,3.246047368513288,39.768699862246926,46.18571847704662,0,0,0,193.49595182374208,0,1,0,0,0
2.9730387950455075,-5.137157951415581,1.1891245340353502,5.9354318709457,34.76001424759197,65.13885990247256,0,0,0,29.015828200514854,1,0,0,0,0
3.645231326743396,-0.5979810365764848,1.4236528254171434,3.6939535386326265,35.0024971898996,34.79337413496703,0,0,0,76.7631254053393,0,0,0,0,0
9.905478984424686,6.550300797296675,3.072046009273517,11.875392812279708,29.676174183997713,59.17280031656028,0,0,0,163.62287889463445,1,0,0,0,0
1.4077472093480736,-4.45032532594621,6.199127834591103,4.667670480248742,29.79367685721649,53.71525462449373,0,0,0,43.5127034998172,0,0,0,0,0
-8.941386356353757,-5.3942630199235815,2.119695687651002,10.442531469988692,19.58766695350935,26.322204679081082,0,0,0,170.99073790330007,1,0,0,0,0
-6.218230932368138,-8.802253631038477,0.13048496058405717,10.777108374391991,41.50020470689532,89.77944022801992,0,0,0,133.30094334544492,1,1,0,0,0
-4.303794429527783,1.4377338303135119,7.509861298660148,4.5375902259307574,21.033220867314718,35.7391829584258,0,0,0,144.0185631371387,0,0,0,0,0
-7.060146120636079,6.89523426371775,8.11224805551705,9.868633076382967,30.22067177152283,54.7426478473623,0,0,0,13.842464845436378,1,0,0,0,0
-3.6836962258767354,-9.59166372164081,7.370507223934665,10.27470830892921,32.49928350675045,43.058920340024834,0,0,1,73.20609085837928,1,0,0,0,0
7.116606507564413,-6.796262125314938,7.810110933157761,9.84049120011285,22.407292585062102,63.96128700971534,0,0,0,193.40932525043215,1,0,0,0,0
-1.5828393453925713,7.200849571782985,0.824730933710918,7.372761690762152,29.621972241703183,50.00930413323532,0,0,0,177.54426550135454,1,0,0,0,0
2.3309198499272092,-7.440905383337264,1.6532950051090185,7.797452165326964,40.133011485445465,39.86184487836556,0,0,0,184.2808775987076,1,1,0,0,0
-7.783002553163483,-1.0818476926541916,4.530593094442885,7.857831963884853,37.02860640625143,87.42245214339,0,0,0,133.02612179822788,1,0,0,0,0
4.209027082362326,3.6954763782922626,4.633381336493253,5.601111911270441,35.189908224469306,47.89418655424129,0,0,0,91.39489953529814,1,0,0,0,0
4.836213188489333,-1.4659299824949894,5.214747246317671,5.053504597613019,41.84012304766027,37.433513051312744,0,0,0,152.3017238460647,1,1,0,0,0
-7.129202244232586,5.533815583872048,7.082954644793984,9.024890002403136,39.30424827261988,47.904472476615126,0,0,0,135.65813236601556,1,1,0,0,0
-9.71366537549293,-3.761338483704055,0.4435598850236824,10.416475517949598,40.732870684665315,30.523739550531033,0,0,0,127.79536840364624,1,1,0,0,0
-3.567842141896074,-6.373166675544635,0.39567146245812235,7.303886022095513,10.139719216749953,21.847220660510164,0,0,0,128.81695869027814,1,0,0,0,0
7.689093402413739,-9.575754292162378,0.7851397907327359,12.280766572771778,12.709444741063685,30.802046485881874,0,0,0,67.61259053976684,1,0,0,0,0
2.724157763851963,5.299941349018788,5.622326859376997,5.959061488640137,15.807119568456052,24.33004141366889,0,0,0,39.10522569953179,1,0,0,0,0
7.403561348435705,2.048098779677371,8.979200542349156,7.68162933571824,17.914536627457117,86.12513458853576,0,0,0,149.1712084791456,1,0,0,0,0
9.077878333506987,-0.7253872543037652,1.5416638030257774,9.106814026137899,10.065840043640884,70.12646364750681,1,0,0,102.37478943864065,1,0,0,1,0
5.628913344034245,-3.0670636336691315,2.030049573064295,6.410268696990984,34.42016752026258,36.07088785551211,0,0,0,104.92632448786111,1,0,0,0,0
5.491304330372529,1.300666553761399,1.2220076066819465,5.643239914520882,44.16579026986023,68.83557643078665,0,0,0,187.2966639521049,1,1,0,0,0
9.879725981170672,-5.641846302300413,3.020485652829185,11.37714442036312,33.3530520132215,59.725004683776945,0,1,0,47.66723681265043,1,0,1,0,0
5.096020593434105,-8.138067984926336,7.498423200778236,9.601956905547299,36.76985202062693,40.41299617021302,0,0,0,168.6357680053451,1,0,0,0,0
-9.574300145162205,-8.828527700288744,2.6910957499927313,13.02344519028735,10.698178461307506,41.99829319160979,0,0,0,45.67254627538289,1,0,0,0,0
-3.2409863302095543,3.861322794611766,5.322654553483581,5.041210778850019,21.05194141627964,23.80084462774,0,0,1,53.300665050386385,1,0,0,0,0
4.110346541989916,3.6474706179739336,1.536491709690793,5.495360825663007,36.20987729578522,39.798173280936666,0,0,0,137.83512127667063,1,0,0,0,0
-0.8970242930182408,8.249761057688964,4.557023928680945,8.298385993145066,36.255761822685216,93.5524777479882,0,0,0,171.44118291330435,1,0,0,0,0
-2.605461896891952,1.3752730224718146,5.925450409850667,2.9461513169717826,10.667360189677826,40.77120799455574,0,0,0,37.82472432551184,0,0,0,0,0
8.919225237916756,-3.2717716909468937,9.857957317581201,9.500372037050585,26.86654825067551,34.21327733366691,0,0,0,192.10170844587824,1,0,0,0,0
7.4101168455214435,-6.523011299267054,5.058028014350654,9.872158227796307,37.747012728782735,61.40826757030706,0,0,0,70.48310248388621,1,0,0,0,0
3.644499246306161,2.899386339190386,0.7232228317185083,4.6571252828552945,19.06495501250702,51.49448973278995,0,0,0,133.29186169846204,0,0,0,0,0
1.1347977061728916,3.9156835141457904,7.39253568723862,4.076805516196276,36.09133971314835,75.15955506638689,0,0,1,142.89475339324517,0,0,0,0,0
-7.486731971569953,-7.482877994834101,7.73283146029321,10.585113069764542,17.514659900385595,78.15156681345816,0,0,0,199.5511844446419,1,0,0,0,0
-6.557199726566676,-6.542216434098944,2.535985204300074,9.262692056021317,24.086925800060996,88.62268594737927,0,0,0,39.75766001991443,1,0,0,0,0
-9.703039905507165,-0.2955137991995844,3.024138821989362,9.707538916398011,17.947295339385633,42.40857180418795,0,1,0,174.30496920363044,1,0,1,0,0
-3.301938895446071,3.1523604825996276,1.1130227223772762,4.565104279369243,16.02726384108039,56.15382634321882,0,0,0,139.1206546945076,0,0,0,0,0
-3.1981402734123954,8.330511732862039,1.4573497739161974,8.923313674850526,44.394667932309346,82.08214022108403,0,0,0,66.22223069581693,1,1,0,0,0
-7.386016375540674,-4.053461664700839,0.7708429073000304,8.425187794165439,30.190382033658295,71.20420574002057,0,0,1,176.62575179748276,1,0,0,0,0
-6.184234583678028,2.4758252219608856,3.89560616786546,6.66141635957827,29.530474908831348,79.22939501819405,0,0,0,52.94488395787512,1,0,0,0,0
7.224181769395656,-3.356137106760217,0.1028597767631041,7.965705148738647,43.83607835098438,36.08133779065131,0,0,0,84.1646772593106,1,1,0,0,0
3.5179369133324876,5.638754158800381,4.345105915927515,6.646158935022236,43.89659689952358,56.315055621432315,0,0,0,168.9043190802486,1,1,0,0,0
2.494627379830961,5.3327362190506715,3.706477002542695,5.887379837090277,34.212871912686474,63.84240960130288,0,0,0,190.1075829835027,1,0,0,0,0
8.012827697990367,2.46237738658178,6.739650164128023,8.382643384495783,43.25265409061091,83.97375659798004,0,0,0,23.698864498628236,1,1,0,0,0
9.270029838462108,-4.581083737297906,4.753601325752008,10.340202194063382,43.82771195037457,32.022500113041545,0,0,0,32.6955374982702,1,1,0,0,0
0.21597674294643454,-6.35911118076873,3.215974094063092,6.3627777709795605,39.53933041921509,41.08906385698639,0,0,0,169.39493641085676,1,1,0,0,0
-6.15584533813114,-4.423892023173098,8.254375934905656,7.580583912845069,32.29865789074931,35.46580383124007,0,0,0,17.018222204960654,1,0,0,0,0
-8.424421252835671,-1.2232467998176482,6.626075518558803,8.512767245643067,17.62414158092418,93.55057555643144,0,0,0,18.678184447450505,1,0,0,0,0
-6.84505314572792,-4.50596989269682,2.0093812554924115,8.195030032997431,11.841119175058964,57.96835475402589,1,0,1,72.13507430588841,1,0,0,1,0
9.402709475967775,-1.5031937814945415,2.986211027009143,9.522107804166998,36.11652816279974,51.32067537484346,0,0,0,115.82119144536433,1,0,0,0,0
-8.79627875127493,9.484119841887278,8.288358759114683,12.935341087323936,12.6798476382137,55.3270305944248,0,0,0,190.10468685876265,1,0,0,0,0
7.750082695358593,5.982317145692221,3.0338667811394897,9.790398368633415,39.484914770311626,35.76719372794168,0,0,1,6.131880669524852,1,1,0,0,1
2.9926669003670785,5.745667659539498,6.076981217649062,6.478329416634414,31.365347614422166,30.715239844183692,0,0,0,124.6141699058894,1,0,0,0,0
-8.496242726752572,-2.358655547393271,3.593095053349324,8.817561820772509,31.916142051604794,92.55231113159762,0,0,0,48.67067357271523,1,0,0,0,0
2.3983754149802436,0.8852090280264377,9.930587391956255,2.5565210060707826,11.284616328457876,93.69584625966492,1,0,0,160.79453207286315,0,0,0,1,0
1.316722397005048,2.997069085373095,1.465671763538784,3.273557846330784,26.938655171479517,37.99114322487543,0,0,0,127.71899549808745,0,0,0,0,0
-9.377504742125405,4.032993504319485,0.8197855472834643,10.207969033772958,28.059594426002374,21.547430291033024,0,0,0,139.05327208389463,1,0,0,0,0
5.592550518166195,-7.66236546305521,4.006243746489446,9.486225054660165,38.585295256524745,59.6779431378991,0,0,0,146.25566746693173,1,1,0,0,0
9.066273906370391,-5.635443267335645,2.2981984580937302,10.674996176331458,35.49755127399233,32.31398362017141,0,0,0,36.877062358920625,1,0,0,0,0
6.788174926526128,-0.8779993389249512,2.262183330010812,6.84472071543249,14.183285642589034,24.396439366534203,0,0,0,66.74915924635994,1,0,0,0,0
-1.8961556527218892,5.623312999062813,0.12408698983485521,5.934395954499327,33.866695345247635,82.16472977223592,0,0,0,83.37447596802697,1,0,0,0,0
1.7799335606616928,9.577402167454665,1.9050744939509194,9.741395986075872,20.17932780395428,44.194046475278036,0,0,0,111.64252733767701,1,0,0,0,0
-9.758292236954738,5.076825326588052,2.6708337918810274,10.999928307879873,18.71446283644597,89.84460566638722,0,0,0,115.73694966965172,1,0,0,0,0
2.399328407119407,-9.744937925515643,3.595645252655175,10.035964925076376,29.34626155287055,23.120767697713937,0,0,0,86.04052770598643,1,0,0,0,0
-3.811125859091062,4.53916900092179,8.884213722938556,5.92694993506457,35.73309912607073,26.545455789847978,0,0,0,102.8248688997132,1,0,0,0,0
-0.034840177643328474,-7.407928491240043,4.180247517912545,7.408010419087179,32.37052436667116,51.69712540417919,0,0,0,72.6100113708456,1,0,0,0,0
8.056048965415343,-4.532242154165324,0.6497947342431455,9.243437881933472,22.997389304010554,62.00971861828646,0,0,0,51.50514482964602,1,0,0,0,0
6.422520928634171,-8.322375290011806,4.187439924462637,10.512407219402368,23.52956836123273,44.42063842077042,0,0,0,155.02876420665748,1,0,0,0,0
-7.099405662110801,-7.081090336988702,7.043801687729343,10.02713324514069,12.28050884807151,50.88818537115721,0,0,1,13.517425474461245,1,0,0,0,1
8.73512017395474,6.100349596235912,6.767500896501734,10.654416438722805,43.592225510622704,74.81584462524458,0,0,0,101.91916129131529,1,1,0,0,0
3.043373622208067,8.032183424051201,7.800852095838532,8.589417533334535,16.80224813152919,76.70953547539696,0,0,0,34.78455884970182,1,0,0,0,0
-9.567165811038567,-0.25742032023004136,8.41408500463303,9.57062834286091,40.820699045686595,65.95088075991048,0,0,0,125.32170168120865,1,1,0,0,0
-9.304909429827346,-7.11519150400608,3.2845167858036395,11.71355153811047,15.781581080488468,94.20514458936765,0,0,0,95.90073894957541,1,0,0,0,0
-6.389455037168405,5.328330420859832,2.503536494654568,8.319629844281357,16.327429535421206,73.44274009211182,0,0,1,14.445644450010471,1,0,0,0,1
2.5918201881879472,1.2985204839278435,4.497222434428579,2.8989114051793314,12.003558721403921,92.54217023224236,0,1,0,146.45219647828307,0,0,1,0,0
-8.539239820542184,3.4126993250978277,2.4639471114224194,9.19593026268993,27.46657350113854,60.70551558707872,0,0,0,68.57757719963278,1,0,0,0,0
5.501306585275376,3.9058657266434373,7.971022181756382,6.7468630651408725,44.57974872983918,80.15063448851446,0,0,0,177.82731729722786,1,1,0,0,0
-2.3686209168010297,6.977117358767952,6.4217312811891905,7.3682108876937304,18.88039963881878,92.96219662809759,0,0,0,58.82982610817052,1,0,0,0,0
2.581010808759041,7.503724324093167,0.10438019114514294,7.935206079675464,35.487355699100604,44.38491089453353,0,0,0,41.6051192787308,1,0,0,0,0
5.162066994583867,-7.2240714066633345,0.5205044259884694,8.878859349327643,19.53107579300466,89.9227141408513,0,0,0,117.69579887476708,1,0,0,0,0
-9.595690821727324,-7.252846337076939,5.775955804475555,12.028344122755733,22.60800048218926,71.7900866206105,0,0,0,189.19568433667538,1,0,0,0,0
2.9509087356412884,-3.906720767185572,6.176005668252314,4.895950318257232,33.71688573277957,68.84631114392855,0,0,0,87.92328435333724,0,0,0,0,0
-7.676983898324943,-0.5618811737064355,5.669805158397483,7.697518576041643,13.423651206464807,28.38764810131363,0,1,0,125.61838633761828,1,0,1,0,0
-7.856546499521353,-5.633896137975505,1.326983418770794,9.667787161115854,27.473906937488778,58.64740648348467,0,0,0,158.9218542142657,1,0,0,0,0
7.968575992453456,3.380738610748102,2.5601089639199737,8.656072833664732,24.619636799756655,45.13832295940634,0,0,0,94.72505553745167,1,0,0,0,0
-6.3212636750928874,-9.961727114203276,2.7589197642402232,11.79806685639226,42.147853714822546,94.53312667648815,0,0,0,110.2032170298714,1,1,0,0,0
-8.719408976903125,-6.80869184429427,1.6781789084505248,11.06283768013696,14.89016631321083,45.78822796219063,0,0,0,173.24349791793088,1,0,0,0,0
-2.1371390787083904,1.9764949598304788,4.599935159813679,2.910995666087092,17.324797551344485,35.652999678703864,0,0,1,154.7572299400283,0,0,0,0,0
8.265046790923705,9.570534924638686,8.32069583214546,12.645399843416856,26.94156806412032,21.914882791034607,0,0,0,161.81098787293976,1,0,0,0,0
6.416650273493254,-3.061649309575907,1.2631870352430297,7.1096481788586186,22.06086582158393,49.57661032472329,0,0,0,32.32308567923772,1,0,0,0,0
-1.3221553579900842,-4.957438411224073,7.171861191070948,5.130720260523054,33.40992469090797,79.1230755290062,0,1,0,127.47606588928608,1,0,1,0,0
-0.9034871558390343,-9.236840787999213,5.521907494552469,9.280922194675055,14.769942554396534,38.4184213737243,0,0,0,78.9977200178313,1,0,0,0,0
6.7407564059857386,-2.919744605236234,9.675884629758242,7.345931219705495,30.466961178716442,74.80254789242235,0,0,0,138.29215020685018,1,0,0,0,0
7.67348967769658,-4.379516819439013,4.060218195392061,8.83530482810102,16.306978454311775,56.46552577282697,0,0,0,179.21433984743567,1,0,0,0,0
-2.533162356242123,-9.416563842589529,9.831091781537255,9.75133765822139,23.364250300697346,25.226830803133403,0,0,0,189.75351091472461,1,0,0,0,0
0.3076245803691897,8.967527722214555,5.663193970045204,8.972802590669978,40.96241162283614,79.07934354392668,0,1,0,199.4770636856399,1,1,1,0,0
1.7777595798177082,6.226567346826965,2.2803812542114867,6.475381845745115,16.591783294938054,35.39729488257715,0,0,0,129.9642111504598,1,0,0,0,0
-6.22576877375586,7.138954215808759,0.590444366664963,9.472320946826454,44.36664627673453,21.413467231036257,0,0,0,73.03747823086027,1,1,0,0,0
1.206233249720377,-5.271657456103737,9.373817958316527,5.407898943880618,30.977039459035964,87.68937246812217,0,0,0,176.8909747970206,1,0,0,0,0
-0.7599963666161145,-3.9665955216275357,9.00464713722865,4.038746650814497,18.366683762966755,40.35529218723903,0,0,0,98.51533583701479,0,0,0,0,0
0.9557001041321023,9.302480863600724,1.009102034710983,9.351444428894169,22.77766674816153,82.09910875674422,0,0,0,174.06773378975538,1,0,0,0,0
6.891439104971006,1.9770876503684391,4.155665255138113,7.169435718015957,37.47745670605184,34.179179898598754,0,0,1,42.17026499533285,1,0,0,0,0
-4.314456428024156,-7.320192008772768,7.025474355220983,8.497043327806423,40.436528464468715,60.39904808973048,0,0,0,191.9052061888156,1,1,0,0,0
0.5718572228582346,-6.085542512098736,7.634697103664779,6.112352112721921,10.505241652178789,25.020053119064087,0,0,0,77.75801958716237,1,0,0,0,0
-0.937696731153153,-3.847605071449898,7.994655071303982,3.9602196839900543,42.76841775503987,50.64410520856521,0,0,0,85.7179793187002,0,1,0,0,0
-7.18782262280426,9.662298081063838,0.12428993500695482,12.042624226647057,17.15902254478968,43.17315565775604,0,0,0,126.15490668800653,1,0,0,0,0
-2.136576127790062,-0.10881726490618959,3.7591222886988076,2.1393454015151545,12.713663092968908,84.5757675774745,0,0,0,183.86323523070845,0,0,0,0,0
-8.189799410440163,8.147342722337143,6.878341606445869,11.552142996797867,33.399104465106376,24.231692089265337,0,0,0,163.12315980204136,1,0,0,0,0
-9.138759197536778,1.7794651362992973,2.6633817673077025,9.310392894065627,14.769348897063377,86.01870123863837,0,0,0,151.37315714404053,1,0,0,0,0
-0.16227778975455642,-6.897239487081541,3.616391541374754,6.899148253458862,15.073445947303906,45.35622281087446,0,0,0,58.05460501202437,1,0,0,0,0
2.119290414820858,1.02484946890673,6.918964900421419,2.354083323986212,20.999786784321717,49.02648461244158,0,0,0,81.05659235908061,0,0,0,0,0
1.2742305597767043,-4.020736682878239,4.970765526713557,4.217817799823927,33.275947852560634,28.28805452800713,0,0,0,162.42520246910027,0,0,0,0,0
3.460161655806038,2.8685781880599936,2.4553640962026404,4.4946033757522965,17.96600380395385,45.20499987690833,0,0,1,99.260560206783,0,0,0,0,0
-5.7661091098767026,-7.954309234522057,3.3554407365606393,9.82441090678754,18.90175130090899,75.65489924267268,0,0,0,91.02117824139896,1,0,0,0,0
2.928670149317526,7.167283697606514,4.567509400857116,7.74254896306634,42.5850976223111,40.553343492597065,0,0,0,192.75990124937738,1,1,0,0,0
3.480436739736181,-0.32735634826959625,8.483755128539638,3.495797774193728,21.471753540327377,90.2095855252574,0,0,0,196.24962569826556,0,0,0,0,0
9.638310796766191,1.5325423522194814,2.6233535457238557,9.759391429613126,42.79205065265083,54.15387362297954,0,0,0,168.22687474489308,1,1,0,0,0
-3.602695381059071,-6.297475091972604,9.803133679839114,7.255177912547681,17.545273868541948,58.499733164301546,0,0,0,146.25176345345605,1,0,0,0,0
9.900862869036523,-6.5688562426029335,7.437913746806152,11.881791021872488,21.953098539670002,45.35730119759178,0,0,0,111.50804823666697,1,0,0,0,0
-5.11353642666106,-8.370898797645802,2.7609745486403883,9.809189643758424,44.909102612993465,88.20195744385553,0,0,0,182.8695482844369,1,1,0,0,0
-8.330419754798095,7.884506013249268,3.5747105084545563,11.470018673223432,19.763969402360697,61.330975158216276,0,0,0,87.00647813756062,1,0,0,0,0
-3.4763354556984183,3.0697527431231784,8.642182013869666,4.637703106545114,40.139266701031524,64.5734222450481,0,0,0,31.172186788628412,0,1,0,0,0
-2.630274481494334,6.555618134347483,7.569368390625259,7.06360198279786,14.446731868316181,46.047971094778546,0,0,0,117.39206142894757,1,0,0,0,0
0.9210730342070441,5.788927827850937,0.20782081011529496,5.8617455531957665,19.738534232843293,87.99270531202203,0,0,1,22.85913514871037,1,0,0,0,0
-0.9050914950082074,5.444052992997172,6.931093712119864,5.518777365041795,18.49373578011187,77.81913235751432,0,0,0,49.704878662968824,1,0,0,0,0
-9.26256275004576,5.4474294416616065,9.128412538075978,10.745676163946918,14.501136942963063,56.31947813139258,0,0,0,84.17457647403185,1,0,0,0,0
-7.1212140792793015,-9.355778178663527,4.104851352236672,11.757647523687822,23.682595634486482,74.71610332632972,0,1,0,119.00228820310333,1,0,1,0,0
0.5953076037000038,7.788458818607129,6.001018983499266,7.81117673031165,35.62323687180605,74.08117508675105,0,0,0,179.24958405199453,1,0,0,0,0
1.0818316213376793,-8.705327387777013,0.5371631620094204,8.77229072621893,35.53217113813868,33.40170177205759,0,0,0,124.02709811729423,1,0,0,0,0
1.342838145625418,6.070728158381872,6.286934953748248,6.217471725574413,34.65824981376994,44.70369488598415,0,0,0,87.44127310607706,1,0,0,0,0
-9.545036275008073,8.491640863598583,6.41092071057246,12.775589303337723,25.20573568963696,68.02881094157269,0,0,0,54.52126791392515,1,0,0,0,0
-2.5961394108956037,2.6182527092721877,3.982908842213786,3.6871651835002623,14.734181726980825,80.1665845293661,1,0,0,15.971430971857576,0,0,0,1,0
1.2100297292241162,3.8773445161734106,6.648012585487916,4.061769619600083,18.635577036350043,64.18431981607603,0,0,0,197.5885067725897,0,0,0,0,0
1.3342608676274246,9.205152052800472,1.7638961250128045,9.30134809466126,38.288272055948724,58.4771616051816,0,0,0,23.63059608289275,1,1,0,0,0
0.13754472882588864,-2.1913975793445406,0.39083767671638947,2.195709885933226,28.934559572259765,71.89545652111251,0,0,1,11.893631062834988,0,0,0,0,1
8.172659259225355,-1.0391601346621027,7.50067410741605,8.238459391953867,28.134073767875503,37.54377560836402,1,0,0,183.5110227418813,1,0,0,1,0
-5.580921785885947,9.178698936196596,8.57665084340721,10.742215886003823,37.82930765702612,59.35747151704465,0,0,0,130.87928568486464,1,0,0,0,0
7.690628188235028,9.480284710349167,9.123331491479872,12.207438720671728,25.226841855700865,64.62801860884593,0,0,0,163.906483079759,1,0,0,0,0
-2.2412945866084533,-0.15849046971631253,6.701852368200862,2.246891330917286,35.89820942783008,91.35652016537907,0,0,0,136.25192793544852,0,0,0,0,0
2.8381144312224045,2.228892342122343,7.145383870540604,3.6087192461432207,34.22937023811767,47.48824216100503,0,0,0,58.00389503839429,0,0,0,0,0
0.4136366757841863,3.7061955790590098,8.21443097118731,3.7292064799083384,11.063885235712284,47.84699233904291,0,0,0,32.58861854642308,0,0,0,0,0
1.5639342589868974,9.871348186693243,6.94155288844641,9.994468739726232,16.66602244212968,49.70968786073219,0,0,0,130.32427356740115,1,0,0,0,0
1.0659241197510347,-0.42985573989335535,4.691518205507475,1.1493346710972754,41.23462600208919,25.434249236536985,0,0,0,56.93897012199574,0,1,0,0,0
2.467198907310376,-9.859336646282026,1.5720576422372559,10.163345391796602,24.534251784462526,41.32045999104888,0,0,0,167.7295244979673,1,0,0,0,0
9.312827654237278,7.76404744026247,4.501848530224386,12.124734701104714,24.710228288331088,24.410992352033144,0,1,0,98.14773020680683,1,0,1,0,0
-4.943264521137198,9.784068696392431,2.406695296238749,10.961927950030509,32.060736466153315,65.14234226642901,0,0,0,71.71425117422716,1,0,0,0,0
-6.100242209396787,0.8466323540681877,2.450871943881421,6.158712637902602,37.57652876811383,41.11933299661022,0,0,0,20.919128630505966,1,0,0,0,0
-8.875014249725151,9.792756521281852,1.314326575998968,13.216049266627781,42.995656806067466,75.76168647015047,0,0,0,145.80044173560896,1,1,0,0,0
-6.7240894264598,-2.3324481264019887,1.7101438622952707,7.11714077965194,19.704548750254208,75.77005905087884,0,0,0,150.24894499438543,1,0,0,0,0
4.1208970010093555,-6.576096847217725,7.703919094662163,7.7605954563367625,39.32401427232533,54.24948141680036,0,0,0,191.34946821366347,1,1,0,0,0
-3.1240155441856343,3.3025306403376025,7.51185638231444,4.546007231701481,25.788131664982135,70.66745744814116,0,0,0,119.74149018933211,0,0,0,0,0
3.0864855528443975,5.511331374213979,6.9719736490757,6.316737020354143,22.036637899552595,41.44708444711176,0,0,0,129.35001177550103,1,0,0,0,0
-2.7956965242229277,0.18847649592551718,3.6486716204944747,2.802042548761264,29.43093236322735,50.682089394473095,0,0,0,122.00662047386245,0,0,0,0,0
-4.014051078924501,-5.935259366115604,2.641355521733377,7.165187353257272,21.1788734234836,87.86439162579745,0,1,0,180.16223737091696,1,0,1,0,0
-5.699384276329605,0.09448094199712642,5.35180326847028,5.70016734646219,31.978877309959383,30.621964136238184,0,0,0,190.90302059932625,1,0,0,0,0
1.7777444964162985,6.091478256944974,0.7148292953463582,6.3455876677713485,39.34266337016783,91.046687422068,0,0,0,113.6462204739548,1,1,0,0,0
9.540935291939217,7.334791660556846,4.883859966269129,12.03447609780939,10.041619116436205,20.82452954752739,0,0,0,55.48621416776717,1,0,0,0,0
-3.594317879958151,7.7054907188100294,4.8195944875586845,8.502570684202182,37.84693044173701,66.7975419603025,0,0,0,78.16933305062116,1,0,0,0,0
9.507304142765165,2.7711001932429564,4.725027156649685,9.902920192752783,29.072563080106406,41.5734577527743,0,0,0,196.32150949126316,1,0,0,0,0
-9.2448204810958,-2.9651330383007384,5.5496114558370575,9.708692994554465,37.414978337988046,40.05102209505962,0,0,0,199.37195935640395,1,0,0,0,0
-0.08093545114633827,7.78114105610652,2.9085844188592893,7.781561969314307,40.1993509974469,36.08208911653702,0,0,0,100.26388749458394,1,1,0,0,0
-3.962657302975421,-5.625550748064862,1.4598175105583824,6.881095415693461,27.093893962212263,89.03634736198501,0,0,0,140.5717781814689,1,0,0,0,0
-2.3364489976057197,-6.586503372898727,1.6950825731012034,6.988635102766424,31.715947714234957,54.44838340433076,0,0,0,199.59887575381765,1,0,0,0,0
-4.152485107338948,2.7934669143905566,8.21381664944828,5.004656828241718,10.9437414401852,35.58935931667906,0,0,0,26.870605928178225,1,0,0,0,0
-2.531963487556961,-0.595201323121529,0.6146325771630651,2.600981298926855,37.62846628637428,82.89530565925158,0,0,0,149.6245333967003,0,0,0,0,0
-8.93936221913477,8.714142720458696,7.153066596304473,12.483928878258535,24.12362074246309,62.023394926593134,0,0,0,121.33885386594223,1,0,0,0,0
-9.694734028396892,-3.6695396908252693,2.65990186053958,10.365972671384903,42.14214824809764,79.43016202510377,0,0,0,53.9732115854216,1,1,0,0,0
8.395289028546518,-0.20654123003292923,4.428127006449966,8.397829311943477,29.431918486304355,92.5563879998515,0,0,0,151.19543876533598,1,0,0,0,0
2.9063167345882164,-9.327996267574148,5.70047108065755,9.770270791008034,33.770922248112065,24.455008071057662,0,0,0,138.5448767938565,1,0,0,0,0
2.178832464668252,4.058287684518335,0.23857587570727917,4.606192553444279,30.53488683491397,36.416901540631805,0,0,0,76.13234701484355,0,0,0,0,0
5.483416457872046,-1.5598048159364488,2.3926083770295206,5.7009514218488615,39.434747915203715,20.25945662578192,0,0,0,174.77636202685127,1,1,0,0,0
7.77505994451889,0.10862675783908138,6.365199960151269,7.775818729457415,31.792851773743923,28.78712473796014,0,0,0,183.45011813526142,1,0,0,0,0
-0.949799650346959,1.598939501916787,7.727436621864335,1.8597652826604512,39.744607617789356,94.16400865270809,0,0,0,183.27720093913237,0,1,0,0,0
8.446173983841305,5.729953019546903,8.16855742690404,10.206381169226063,41.468779066457614,34.7401054752938,0,0,0,54.33654026525026,1,1,0,0,0
-7.910669976191054,8.093271761650826,3.0231264307684493,11.317232315373985,31.419469065061953,43.511491250677864,0,0,0,42.120098969823,1,0,0,0,0
6.572503143157846,-6.018738977408653,1.9417106766161323,8.911959181066637,37.6462376923237,41.251825602747964,0,0,0,75.4824950202919,1,0,0,0,0
4.8931572067206375,-7.114105319317787,0.9416205162430739,8.63443582082974,37.7242875764653,59.62988579627379,0,0,0,55.51855427704519,1,0,0,0,0
-6.123764155167262,6.872237550480392,3.7102116866211663,9.20478877423834,25.506422236946744,54.78852288448089,0,0,0,81.74584305928585,1,0,0,0,0
0.6707306988083204,6.822167243939909,2.8776638520676117,6.855059852007898,33.023586259105244,39.8746224320751,0,0,0,170.77609868468346,1,0,0,0,0
-1.1914940731874424,0.32067642956101494,1.367000304762029,1.233892823107746,16.358958371141817,39.506308303928776,0,0,0,162.10426309564875,0,0,0,0,0
-5.931241529072484,4.0979292899242274,7.325344572186107,7.209205957760742,33.01691708750531,39.48281569846232,0,0,0,120.67403839632571,1,0,0,0,0
3.5848684021564114,4.0655623720516445,2.163859815447821,5.4203393677722485,14.461893009791346,35.668957984454956,0,0,0,107.14603834159753,1,0,0,0,0
7.986344003007911,-2.959540097671118,1.6140578576218538,8.517075092078477,38.26009597626574,65.27963820908238,0,0,0,80.71581326893853,1,1,0,0,0
0.6848246700813796,-5.532197529958001,4.5806177134761565,5.5744232292879845,20.168878564577124,53.777101031702884,0,0,0,157.6521759527696,1,0,0,0,0
2.300799571606502,2.5776832648910837,9.206220311988671,3.4551598635669842,26.16702225341595,79.73499893758265,0,0,0,105.14328201923652,0,0,0,0,0
0.9343285517725359,-1.0535687735175632,7.679576698606684,1.4081821626439766,25.36069313339489,38.243938268014546,0,0,0,133.61018373159362,0,0,0,0,0
-4.450434425040735,4.8402660638073165,0.6758888156745447,6.575297874623812,17.68571339281872,71.87485064651077,0,0,0,34.231201569158756,1,0,0,0,0
4.770629461129028,6.495439553276071,5.498135100055215,8.059133976157456,16.937458830944692,81.55894659192055,0,0,0,56.45643940860388,1,0,0,0,0
-7.44755157034813,0.6950907395637085,5.441587565583996,7.479918149901249,27.08815840268406,50.04750517707794,0,0,0,60.44613595345079,1,0,0,0,0
-8.558295111520168,3.279629416206957,3.646098519452069,9.165172356454624,34.94059861657931,32.09232220499732,0,0,0,172.44687476080966,1,0,0,0,0
-6.078811967698609,-0.8326679152732002,5.857455145448753,6.135575832451365,17.45557877721943,81.01256239389394,0,0,0,181.378373469786,1,0,0,0,0
7.525395320582469,-5.763896250245586,1.3130728392649778,9.479138922636361,44.908175514476376,74.64875637169433,0,0,0,77.75852793944487,1,1,0,0,0
6.517643882169974,4.753093323758188,1.0790806020549406,8.066695600996876,16.185403383198206,83.73015654414762,0,0,0,197.91887138730365,1,0,0,0,0
-7.948115472284448,-0.7548100931163759,7.37018608100199,7.983876116112886,33.339093135327104,71.86248564356038,0,0,0,115.00415869201785,1,0,0,0,0
8.125129083841347,-8.519440421175997,2.8448244719752283,11.772790141638131,43.455770177860074,80.11377804735268,0,0,0,77.43999102619397,1,1,0,0,0
-8.926539443099879,8.190499174932544,3.31153192813526,12.11475889829379,15.221190003698535,92.9008049861436,0,0,0,160.29324064957765,1,0,0,0,0
6.175158602906773,2.125380490173871,8.611586483206787,6.5306834251145,29.833953054398897,38.59530810948746,0,0,0,117.94249903918862,1,0,0,0,0
5.150799401751616,7.487579950317418,8.369697425387296,9.08815646814469,31.59138793007233,56.15772707203535,0,1,0,30.018381429658486,1,0,1,0,0
-6.579705167603979,8.545311561316062,1.8925162019128923,10.784937170542833,33.901520549022564,62.64373359836171,0,1,0,179.8720078304004,1,0,1,0,0
-3.519306217934779,-9.848488084845853,8.123788729320164,10.45840493636315,24.279186310687614,38.068287968646324,0,0,1,92.08128878533637,1,0,0,0,0
-2.978068406289072,-2.2057213291346,0.45641132369155024,3.7059543999267506,26.208547583647,60.993207988570035,0,0,0,116.62669108553541,0,0,0,0,0
-0.3689129108134619,-6.377933471820656,1.1898477131567522,6.3885939068573725,31.031494381369935,41.80035539425015,0,0,0,103.70339622411535,1,0,0,0,0
-1.9385467172155568,9.47190474246377,2.4216179683203203,9.668244040420934,20.77810560623393,82.82730212206229,0,0,0,161.79558557881614,1,0,0,0,0
-9.567720397973844,-0.7043727174677965,7.143817717376342,9.593613216036893,32.77135350331668,65.57146862530465,0,0,0,180.6697346853164,1,0,0,0,0
7.130864767671742,2.9698465861195267,1.8435575828860302,7.7245854956695235,10.448790636797208,63.7087573860364,0,0,0,168.3660702552263,1,0,0,0,0
-1.6670175739084865,5.6554804797471885,2.823162231980146,5.896050122626267,38.53146137909245,45.99814280622893,0,0,1,17.43459837539884,1,1,0,0,0
-7.163175087906291,-5.174376961972989,5.857933388768434,8.83658612160817,35.981084326834264,64.2758310921474,0,0,0,117.90229307168178,1,0,0,0,0
-3.9120761234688857,-7.805399734137266,4.134735078771987,8.73089941560922,35.01693145249739,20.24915211353904,0,0,0,193.27481231671214,1,0,0,0,0
-3.066101542395354,4.590112651099293,0.3340858389187092,5.519973987081909,25.09978872603471,71.57268517288239,0,0,0,160.10944632765805,1,0,0,0,0
9.119958695116903,8.437191778319345,2.4859311340627093,12.424164024383208,17.68503854513252,27.48904450714631,0,0,0,97.43721371142357,1,0,0,0,0
7.668544097430459,3.0754484138048195,3.6335770534899323,8.262260678543743,43.51160630718922,70.38888004475807,0,0,0,53.95994489821402,1,1,0,0,0
1.275514566402883,6.249409779393034,1.0193959839618583,6.378248976002679,42.42478172423167,61.56408649528685,0,0,0,178.6401264024947,1,1,0,0,0
-9.714755211831203,-8.419632753418902,9.799962913861364,12.855609068739057,29.292550411629236,27.116332995653856,0,0,0,92.7348350539079,1,0,0,0,0
-2.8725117921187877,3.7282232390313794,0.2481233029330704,4.706481968085623,44.24144685414908,47.30161758747241,0,0,0,157.24170755612886,0,1,0,0,0
8.840719167140993,4.344193061296057,4.3975649864122515,9.850397390261316,27.073458518105216,79.84933728891473,0,0,0,182.34032112365756,1,0,0,0,0
-2.5535321552281776,-7.162235788685686,0.6438287578081652,7.603824561397661,37.945586590638804,62.90405589548313,0,0,0,116.45898233395836,1,0,0,0,0
5.935671612315359,-7.541779249010647,9.106272937016776,9.597428391504362,23.333653973306397,63.446143781424674,0,0,0,16.1680281890905,1,0,0,0,0
2.9134516681432565,4.890779714646234,8.882439230653675,5.692796047620345,27.580234629979394,35.780512144049226,0,0,0,164.17762565804273,1,0,0,0,0
4.189751674381588,-5.993808810471471,2.2844759756169926,7.3129859256988015,21.0786998025042,31.29589639286042,0,0,0,73.9016360983711,1,0,0,0,0
7.188880942979122,9.88484328812741,6.420990839307759,12.222525763653186,23.628649900552492,25.50614658008766,0,0,0,131.47885204486028,1,0,0,0,0
-5.197225671671162,6.900386687744621,3.99936015585055,8.638662577197985,19.247565253138603,89.08267145434529,0,0,0,75.41613925687626,1,0,0,0,0
-8.844829763358923,2.9863764564403272,9.685687563307265,9.335387398623634,34.95720626649116,63.841910141251184,0,0,0,128.67004460420708,1,0,0,0,0
4.635480971613008,-3.174771699920342,4.898178724732446,5.618439212521692,41.33636904645235,76.04310702523446,0,0,0,158.95842522573872,1,1,0,0,0
-2.688437264361305,3.9534121045623465,8.513913113288455,4.78091645951972,23.805531646788396,29.11434604577108,0,0,0,164.1012916748586,0,0,0,0,0
-1.7413203474310617,-3.027068639169091,5.772997128507855,3.492182855839374,21.432999437796646,60.632259696349735,0,0,1,11.178015445781456,0,0,0,0,1
-8.56608159251717,3.085243077128002,4.367622272797811,9.104750336754313,35.30205200916839,33.779936995396795,0,0,0,23.89195626764642,1,0,0,0,0
-0.13949665370439135,-1.224389875976975,5.51407622662585,1.2323107906650965,42.80007194259257,61.986096925211996,0,0,0,189.71100293697498,0,1,0,0,0
-1.4108491162301462,4.724732436343686,6.626231677603397,4.930881444914847,10.847789894403181,78.84569842726084,0,0,0,54.26843224686091,0,0,0,0,0
-5.645397835591217,3.77223297666432,2.288035702096239,6.789717103998645,22.598571695213195,58.93676048064347,0,0,1,50.31563255149077,1,0,0,0,0
-2.901614760404982,-2.390133286852647,0.8648550754370854,3.7592692570127375,13.760665363963982,28.697736993432038,0,0,1,10.563497124903286,0,0,0,0,1
4.51040362522896,7.768613804624486,4.820197320842187,8.983045213505312,31.696561374874403,52.75466664579352,0,0,0,163.19997634718356,1,0,0,0,0
-5.326347538715675,-8.553794159024502,9.384262766351853,10.076575440999001,35.54596186187905,74.58156497515648,0,0,0,187.88036001930294,1,0,0,0,0
-9.782172656750367,-8.321606091010858,9.702188163707829,12.842898030445603,38.89444307996159,34.73542795045848,0,0,1,42.112344222744554,1,1,0,0,0
4.74220635549427,-1.4949126440331,9.419673028520712,4.972251495186088,39.2276697714773,44.80782089691295,0,0,0,185.9569635270959,0,1,0,0,0
9.429853144402532,7.919235415214889,2.6272942199081952,12.314074057215672,40.75641211553108,79.25451619530745,0,0,0,94.20448371392462,1,1,0,0,0
-4.587895730499683,-2.5373115162321564,4.645069826046333,5.242779507507591,29.941470754675986,57.12298942195839,0,0,0,160.4930824104841,1,0,0,0,0
-0.17722327166106489,5.735950199045256,9.599216799855526,5.738687373776826,19.670432567028605,61.93521365622251,0,0,0,120.02220187678061,1,0,0,0,0
-7.951469508539766,5.1024055811227225,0.5834196264102398,9.447772756555374,18.361484878379283,67.8288488098733,0,0,0,72.2233943661091,1,0,0,0,0
-0.0842074758964273,8.64270463017256,0.45555863292696797,8.643114844973601,17.139880840668567,56.66985412978281,0,0,0,131.17168874121256,1,0,0,0,0
6.087687392081332,4.084083247129719,9.596139109482255,7.33073487129303,32.049039680263654,65.95633054085152,0,0,0,77.4973127272819,1,0,0,0,0
-1.42671881467969,-5.317517916483685,4.423750266485527,5.50559019254848,11.546083978086681,33.4445689671029,0,0,0,142.8807487652451,1,0,0,0,0
0.020273151058493255,0.8295061446507201,5.831668171740244,0.8297538458284733,15.422305983684083,83.80412354825046,0,0,0,83.88976977707065,0,0,0,0,0
9.232353858756337,-5.667498464493718,9.620773697805525,10.833138816535662,32.613994602417065,67.82247274768048,0,0,0,172.77906461191077,1,0,0,0,0
-0.614594045966335,5.968254934121287,6.574819510943048,5.99981606384732,18.781085774338358,83.71622227869145,0,0,0,115.90516845175006,1,0,0,0,0
-7.441979065983921,-2.3417634842334722,9.871847520734363,7.801724721792753,30.14978386813182,85.06739564123887,0,0,0,113.28923938614876,1,0,0,0,0
3.5346926832865666,-4.186406542932978,9.07816867051176,5.479055767921297,19.254462691296133,70.03533828297216,0,0,1,7.1110934605012375,1,0,0,0,1
7.4698343383409025,-6.496107741293504,8.953108971118949,9.899385881394373,34.589337800051474,93.29651573649339,0,0,0,76.1524504386408,1,0,0,0,0
2.7358910939787826,-6.244340455083865,4.81559918577399,6.8173959689245995,16.1565354031032,42.81276152493113,0,0,0,128.17078145896414,1,0,0,0,0
4.498954184852151,-9.497370495161539,9.86982828870671,10.509073940160647,26.477734099387167,64.75668203399763,0,0,0,120.47642242926868,1,0,0,0,0
-3.159077405831212,-3.988308812571466,2.738746240293515,5.0878656861663005,43.58840190848361,33.58031232574269,1,0,0,36.37119623936928,1,1,0,1,0
0.4910347177893293,-6.727431754304948,4.938492855596847,6.745328242784409,19.909586114616296,37.10977800456226,0,0,0,99.735130186533,1,0,0,0,0
9.042606485633009,0.4023041568541341,1.3338452392451254,9.051551286306356,20.172859695479165,62.17251584958114,0,0,0,136.5653661619991,1,0,0,0,0
-2.754588397784561,-5.7332086943812826,4.99627957841916,6.360616257450094,38.706458940321916,37.09731924344355,0,0,0,100.11699842133707,1,1,0,0,0
-0.878215296269504,-6.754291858940666,1.418571827246028,6.811146792013361,32.87566749504247,89.29703541448015,0,0,1,188.90099653603602,1,0,0,0,0
5.235415436239988,4.143713496227079,6.371441747093949,6.676820824976089,29.660182399292893,43.62228864920479,0,0,0,195.83310593677808,1,0,0,0,0
-1.8246742010624661,1.2808636022576287,8.18897000204762,2.229360335973379,41.12542436010122,82.69203758573764,0,0,0,198.82842703885484,0,1,0,0,0
-7.297887008890076,-2.2928844821803125,3.5031402453981677,7.649606136471983,37.42414681755195,68.66201358029784,0,0,0,171.252518673261,1,0,0,0,0
4.217448537649009,7.110984585813721,8.842267206095961,8.267585738738855,35.50569155312054,39.58310631042524,0,0,0,36.620823547314615,1,0,0,0,0
-4.138843155167342,-7.537652872570768,6.135770705570821,8.599199584289803,37.01273333984908,32.539725262192235,0,0,0,171.68459667070516,1,0,0,0,0
2.511757843276442,-5.449449031999172,6.026855721957174,6.0004518342886,38.52535155119551,76.60767342460863,0,0,0,35.61892663850944,1,1,0,0,0
-7.913979912233222,0.6692794822461892,4.11464790137641,7.942229729527261,12.498087658213333,46.94940403622371,0,0,0,192.45821247093863,1,0,0,0,0
2.587301380830368,-7.777804761018872,1.8874088183998226,8.196851550185263,31.750556510127602,44.80880314653052,0,0,0,96.82527448350996,1,0,0,0,0
2.2471782392060025,9.557118832648907,3.911508474249293,9.817755874950924,25.49315504154442,23.981366039164396,0,0,0,75.63174414074524,1,0,0,0,0
1.3531324782427738,-1.0897475773963432,6.360076962344036,1.7373880643415938,17.42825477130085,34.75999036687953,0,0,0,134.09180002892367,0,0,0,0,0
-7.135078123236573,9.584737320974657,8.819380969816395,11.948913311961618,39.274257198391176,41.155656306873496,0,0,0,70.54631470891688,1,1,0,0,0
5.893301384298493,8.444177339089197,8.012881216204917,10.297336167192078,26.384387901733668,87.87927402727583,0,0,0,78.77726043887971,1,0,0,0,0
7.806797499990935,-2.6708738342300293,1.9627642192938979,8.251039585666726,21.162348585354337,49.20948719929147,0,0,0,134.9676583453084,1,0,0,0,0
-9.452906236747886,-3.416559747427832,9.110916324880094,10.051383826543049,44.48186445227794,54.43688792069754,0,0,0,96.62183044989827,1,1,0,0,0
-7.608680458885379,-4.075947092178554,8.019783914832464,8.631648916844512,14.835076797259461,45.213480003225555,0,0,0,112.73325732772443,1,0,0,0,0
-9.949467376148105,5.088588504369596,1.1396183874996704,11.175224115687248,14.017244601159907,52.7567714744505,0,0,0,125.57567626042186,1,0,0,0,0
4.759958454281177,-3.6535196440639712,1.0490229502289337,6.000450839399002,36.284795132006366,45.1168446192072,0,0,0,129.2084918481996,1,0,0,0,0
-0.22588596262717253,-3.3983671064197125,6.358575315393903,3.405866036430014,13.460389763047168,63.82246760529822,0,0,0,77.68642461891564,0,0,0,0,0
3.5783935371457183,5.559108512323757,1.460627277147533,6.611247065302937,20.388592191975235,31.63111207111373,0,0,0,5.682832422312677,1,0,0,0,0
9.063100740564053,-0.16787100978355518,8.528344349659644,9.064655300094893,10.716254380118697,69.3856916235969,0,0,0,99.91972540211314,1,0,0,0,0
0.007282222093664359,5.396475219005891,1.1294441893534903,5.396480132466282,42.58726331290252,47.43019348401275,0,0,0,155.71886325846705,1,1,0,0,0
0.35756814816112126,-4.271814685249775,0.9540414865924218,4.28675351352221,35.987154734105886,37.0140550503522,0,0,0,133.47078929469714,0,0,0,0,0
-2.5201363422067153,0.2806433057423554,2.9619903180814795,2.53571446507075,17.305899848428325,72.22476001687612,0,1,0,91.14447922156108,0,0,1,0,0
6.655923401965104,9.686789602568428,7.594876422186614,11.753093598591587,13.770321934377808,70.30502600092422,0,0,0,44.660711858738814,1,0,0,0,0
0.472735810736582,1.3130228449830597,7.204888925031787,1.3955314895050492,26.830676197746698,22.448121317646677,0,0,0,91.47242433633656,0,0,0,0,0
-3.7323837934368402,8.306080673088669,1.1976661528661177,9.106133368744777,30.279219259855143,43.67112129132821,0,0,0,197.14469145151793,1,0,0,0,0
-7.8106617032156,6.282422785382323,7.770960196633406,10.023735446248061,38.870051659686474,39.02026822854367,0,0,0,179.63779649821606,1,1,0,0,0
3.607744085126823,-3.970242139982984,8.666475294661927,5.364572679521104,36.51034978540382,44.696061344474884,0,0,0,187.4853498482781,1,0,0,0,0
8.679336454320367,8.675942956048978,2.957947292230052,12.27203599505438,29.614555445967888,30.03083884197425,0,0,0,155.21194475513715,1,0,0,0,0
4.436637472042683,-4.576373868493464,3.8227803321998572,6.373927348390717,17.644006097880606,72.97279956920815,0,0,0,121.92214939306231,1,0,0,0,0
8.63588409508489,7.2875559854139205,4.174074602803465,11.299865766648843,24.92015799031799,81.29038946359367,0,0,0,96.85280155343837,1,0,0,0,0
-7.962586099022113,4.244437673742993,7.319936004743905,9.023193921812222,33.183873653826424,21.218296677933957,0,0,0,90.77942790344443,1,0,0,0,0
-2.899049943550727,-3.599305749499438,1.5466145617848015,4.6216330937863495,33.63928146303086,78.36152571820622,0,0,0,86.99100736043414,0,0,0,0,0
9.523781632980047,2.446545484075152,2.550644712679823,9.833005715361738,19.562772651173304,81.7737398478598,0,0,1,65.7970293693846,1,0,0,0,0
-4.840499738070292,3.144546361489178,6.420861269114302,5.772227432613289,15.674471500939308,89.59591221343356,0,0,0,76.21057979875258,1,0,0,0,0
-9.954644989802375,3.842107282942738,8.087483746871584,10.670367624718427,40.75975142245173,28.96793312737705,0,0,0,85.03782652970598,1,1,0,0,0
-9.045691763264358,4.661248851816319,6.572543487889549,10.176039521078307,25.280580186902924,27.728767985779164,0,1,0,137.86424724301708,1,0,1,0,0
9.092979149726226,-9.35506915047297,8.336072962272652,13.04605643968655,38.19079691161534,73.92155277644535,0,0,0,163.5074280158156,1,1,0,0,0
4.995170425170594,-2.5813389697396616,4.332927143701479,5.6227251803014155,41.942280941313854,23.0084052462657,0,0,0,177.95095124009939,1,1,0,0,0
4.651118158049217,7.133130079643969,8.79453821513873,8.515541371707187,30.594019295197054,79.89010556663067,0,0,0,46.36721667001174,1,0,0,0,0
4.1676092838447865,1.4703311578506373,4.442574298307612,4.419371092874601,27.645351365022826,68.64744191474855,0,0,0,53.23076058778257,0,0,0,0,0
0.7847080005287204,-8.348511233283556,3.1832474722603634,8.385308966183388,22.712332712426544,29.958764209350623,0,0,0,180.12359037145944,1,0,0,0,0
-0.020883419880213694,-3.932784007063179,7.5565501521352125,3.932839453046337,20.08497349966942,63.88269001567096,0,0,0,66.44409449527475,0,0,0,0,0
5.105632124726519,-6.2812772846546565,8.702133104358104,8.09456136673001,24.328262915992894,23.557408136883026,0,0,0,167.66346376906236,1,0,0,0,0
-1.0858546163521314,1.0867895803556582,5.502622245225357,1.536291586848949,26.851507842382,90.7527315094017,1,0,0,81.16845758702948,0,0,0,1,0
-6.69063357741156,1.5481678469318148,0.2705133968250727,6.867415914990187,13.857516486618252,54.41697018162344,0,0,0,45.33505565689903,1,0,0,0,0
0.1612542061407467,-8.652211551919681,0.5193854739775448,8.653714096165325,21.712940367668196,84.30532968554456,0,0,0,76.86989517106812,1,0,0,0,0
-0.17657473310990213,-3.640490436814858,3.080262860304001,3.64477012401513,17.9376115912964,34.465607353111096,0,0,0,67.57887204167838,0,0,0,0,0
5.732287208254689,-4.354776870405184,2.9603392375140696,7.19883311578594,33.94993708301129,46.05072672033441,0,1,0,169.75899905612977,1,0,1,0,0
-4.823373651181178,9.012850945598679,1.3662836333120365,10.222348827274866,24.199526002442887,20.977731271792234,0,0,0,148.39227353435223,1,0,0,0,0
-9.019851346131427,-7.995074290259567,8.49274522378848,12.053171002399262,22.014854102563284,74.48721349427944,0,0,0,73.75300526370931,1,0,0,0,0
-1.6388473218431692,-5.319453251562041,8.762342928342042,5.566183920772516,13.358521000859566,65.2471842363465,0,0,0,130.67364894573555,1,0,0,0,0
-3.3763163283176585,-5.0567630447208956,9.400230951068366,6.080326014229778,10.169791467950255,74.32433271842847,0,0,0,136.77447001092247,1,0,0,0,0
-0.6197133822991532,-3.559937591405495,4.312033991683254,3.6134748277665656,14.095102192965816,93.65546096926674,0,0,0,126.7700962660965,0,0,0,0,0
-8.919169998193405,-4.335961068422652,0.36953795702988557,9.917265340987417,21.2089353812577,33.62761919785052,0,0,0,150.6313750470481,1,0,0,0,0
-8.316080784890636,5.835682432982567,6.097299120386587,10.159349835469225,39.889600096504836,88.11541887507768,0,0,0,162.54130133743615,1,1,0,0,0
9.296564117324625,2.818458838033024,8.28979881294214,9.714412725904445,20.159000845011555,24.019911381395087,0,0,0,141.91712243012762,1,0,0,0,0
-0.000711013777978664,7.986658926050829,7.870930148824931,7.986658957699895,14.691367477333076,67.49270408765031,0,0,0,182.24776163675116,1,0,0,0,0
-3.398716971721405,8.198214299456282,1.0150042034045546,8.874795476723765,43.04130052446895,38.03531331547907,0,0,1,10.448168747102745,1,1,0,0,1
-6.3897389045132735,3.6746169390031795,1.0115657096147983,7.3709953816468765,13.232271868987723,31.779465495245987,0,0,0,87.96727239136835,1,0,0,0,0
4.9995984907381175,1.5417166430331584,8.241019989409432,5.2319093336941815,12.876999496687032,48.93937569954539,1,0,1,7.800090831203921,1,0,0,1,1
-5.780059934209487,2.1062168826461587,7.530084050754966,6.15184869773286,11.77728297464061,91.85892689446159,0,0,0,71.50887267321392,1,0,0,0,0
-9.3794523937128,0.28005163713383396,7.6732977790219214,9.38363235242015,16.566333167304947,71.03364989426784,0,0,0,130.11348761938734,1,0,0,0,0
4.65639716885155,-4.329074812369768,2.669343854123827,6.357902431241224,42.791675951288674,54.96527358451702,0,0,0,175.2976645013119,1,1,0,0,0
-2.4386605981703013,2.71167574769785,3.7172529797110174,3.6469509009199763,32.31307931720767,53.1711227413663,0,0,0,149.9719053257899,0,0,0,0,0
2.567200136978931,-2.0305827787723825,4.097043673358744,3.273191556379127,18.094394093727452,42.276828314940346,0,0,1,15.84963705945017,0,0,0,0,0
2.9882599514445154,-0.9005732637681501,0.3953420222448999,3.121014216696424,12.297302139505051,56.65373331560711,0,0,0,123.26742950891621,0,0,0,0,0
7.987607711811783,-1.2494841443450362,7.430791423494159,8.084744126115849,30.09790716053662,69.53463843351938,0,0,0,58.02600201566541,1,0,0,0,0
3.04356892453786,-8.253687969625808,9.133001926155107,8.796969756589956,21.067809307020262,60.77194046622782,0,0,0,161.81262582865304,1,0,0,0,0
4.397963763685372,-4.438409195282638,5.189042346216132,6.248324691584063,31.34106038258533,60.76888836044271,0,0,0,64.02002344919956,1,0,0,0,0
-6.891728915149232,-5.115449256264353,1.9101483010672309,8.582758795009884,36.16936306283611,48.714465926969524,1,0,0,166.37378235402133,1,0,0,1,0
8.150501392462164,-3.668557484979842,3.719952051446643,8.938063938523225,34.87931473988053,38.971120776051606,0,0,0,161.98355587228164,1,0,0,0,0
0.34250539503490174,-6.771795084537904,4.233527576212847,6.780451210103921,21.52208727765275,69.60311117227639,0,0,1,7.705654405279556,1,0,0,0,1
-7.899423378203201,3.44605225239431,9.378865898398221,8.618362131770466,43.72792151659715,87.82977325559403,0,0,0,185.36355075625636,1,1,0,0,0
0.5232719333346321,0.20303170733901688,8.330352986277124,0.5612801354054495,23.232295794984907,38.604063770476714,1,0,0,84.05657244597595,0,0,0,1,0
6.972980308801503,-7.080850717775498,6.919610050038458,9.937851944678753,33.54105387118395,30.049578102595138,0,0,0,102.86301721403017,1,0,0,0,0
3.1803163483544257,5.476129256217428,6.010902764101244,6.332645869335413,39.51174447175321,94.52927746799209,0,0,0,22.60688403712708,1,1,0,0,0
2.6884790375921384,-2.224497619288634,4.130386240664963,3.489456862291487,26.218813711655834,40.88243522244302,0,0,0,170.15660261724773,0,0,0,0,0
-4.54759031820023,-1.9342895096845112,6.1076023041940966,4.941867421275486,43.76933638726595,93.48443656194438,0,0,0,67.88910802161033,0,1,0,0,0
-1.9665297555952428,1.9787213442814284,4.9551884193482065,2.7897271260745895,33.33152989979449,48.23942935704127,0,0,0,190.83417086175345,0,0,0,0,0
-1.2091711425293674,6.101421408595623,2.5732685850647394,6.220083444552394,10.385914035132831,50.5748860215295,0,0,0,135.1357390125932,1,0,0,0,0
7.565781786617396,-4.243595891135577,5.10508725493573,8.674627377010166,12.233381584772513,61.90970653448342,0,0,0,199.10170286697434,1,0,0,0,0
-3.5923850253285856,-5.881271275848443,4.432048032844128,6.891631301101723,23.567559090048142,79.08409763911611,0,0,0,152.77684153724283,1,0,0,0,0
5.211337336662831,-9.523684328569136,1.7153740621044646,10.856270078932699,36.830264483903946,30.958476516171224,0,0,0,156.98748556778486,1,0,0,0,0
-6.170469336514186,-0.7360507103020613,0.6254883815113469,6.214214550608789,25.98982645556044,38.2534748102153,0,0,0,194.6348332514558,1,0,0,0,0
-7.054188545815807,2.8521895634305956,8.336465167733492,7.608978994954668,30.97335135509825,43.31997025694178,0,0,0,37.45487433129022,1,0,0,0,0
-8.183789755972201,0.9860655524670037,6.128242628293755,8.242981259454469,22.31596600711835,36.02881460220895,0,0,0,125.30903565308401,1,0,0,0,0
0.4358626263564229,0.11789131495372196,8.189582601124247,0.45152474040282264,11.370054195509773,66.957378745006,0,0,0,191.36794588750965,0,0,0,0,0
-3.6576505112005453,-3.7994713995780565,1.3943124620554816,5.27393498047684,25.94204738240898,47.28439373124825,0,1,0,71.4711276290433,1,0,1,0,0
-5.026267598087091,-5.729538446183544,1.1378758842429777,7.621743683296855,28.398701339335574,26.405960878538348,0,0,0,80.75326115868306,1,0,0,0,0
-0.7588512248076924,0.3890205905982569,6.957423147781355,0.8527556515799538,40.85038014243135,65.96035705592482,0,0,0,151.8317517560065,0,1,0,0,0
-2.7823090516733107,8.678938264005577,2.5428318749612338,9.114011907466622,30.026542710793613,45.32172752805759,0,0,0,34.361386005732044,1,0,0,0,0
2.1844142699473466,-8.818852638550647,8.086466393990529,9.085363369905537,11.733590648463355,53.25853709527555,1,0,0,23.358867673281207,1,0,0,1,0
8.59256817508863,8.657078124728464,9.716980659306504,12.197427167284012,29.90769851999176,78.11628051608704,0,0,0,165.7364900138493,1,0,0,0,0
-5.803836191501867,-9.277730134272984,4.096856423522556,10.943527355573426,16.321757132270992,77.30159487319541,0,0,0,136.3054558617566,1,0,0,0,0
6.7643686204693765,-2.236684694537545,5.679793857645761,7.1245660398630095,44.07799547209314,68.5900920758391,0,0,0,96.33473906420139,1,1,0,0,0
-4.131605178181557,3.167841236598594,1.3944569096029358,5.206282690045861,37.747480642678006,36.30651638609604,1,0,0,192.14040166651617,1,0,0,1,0
3.1681360598835724,-9.94673264845642,0.7378820271155709,10.439088871822266,34.10577208844614,63.19966603623679,0,0,0,112.16279817351946,1,0,0,0,0
-5.6399549853648745,4.4396020031163115,9.493588862858386,7.177684736948013,30.240530473077644,65.0507897408242,0,0,0,74.34558952773592,1,0,0,0,0
-4.416649861323874,-6.8584746722601615,5.129333556901458,8.157540734042726,39.511842533569975,67.32988751284773,0,0,0,19.83697306099375,1,1,0,0,0
-5.998325080764588,-5.876340500274915,1.4768028582389523,8.397099585553379,13.74114614185038,55.657117182329486,0,0,1,14.36677803846753,1,0,0,0,1
4.066005029068922,-5.241158893714093,8.651142065467113,6.633411147032279,37.722534591463194,43.83042889997108,0,0,0,119.19355997996261,1,0,0,0,0
1.728934027785808,7.728066048389245,1.340760499431006,7.9191046034701555,34.40699497377639,30.39768439742366,0,0,0,133.78565108998856,1,0,0,0,0
-5.3048252841412635,-0.046725103381202615,9.800542528651178,5.305031058396399,34.37200969191891,69.88179673814142,0,0,1,158.89772181341266,1,0,0,0,0
2.3899699515772976,-1.6848829753530907,1.8462232207148435,2.924172876229631,28.884903054763676,65.04780115888036,0,0,1,8.57295779277732,0,0,0,0,1
3.09036925536442,8.275301429243928,4.788935790379953,8.833515488147867,27.715508487192178,52.35002389616224,0,0,0,146.6939171108127,1,0,0,0,0
-3.4415501014043004,3.3104205519478747,4.3374876888804,4.775264529974734,26.17891610641346,20.745113383895397,0,0,1,139.768624084018,0,0,0,0,0
-4.390995564278453,-0.6043608826882636,4.330903932347587,4.432391467598139,22.752018277011295,21.302437142305124,0,0,0,60.46516940090274,0,0,0,0,0
-9.54418175439244,5.459864245186951,2.2375370289583656,10.995522858725202,30.367788271598837,44.65994587233734,0,0,0,113.16799519699686,1,0,0,0,0
2.0534157528743595,-8.065423462198238,1.4620210241503369,8.322714213448062,26.892580226539874,58.72781817048311,0,0,0,130.43744725432612,1,0,0,0,0
4.884374708783177,-4.0135439380524645,2.3106432181031393,6.321839229091359,21.72539489426972,91.9194979938707,0,0,1,5.413981135919668,1,0,0,0,1
2.1782716918925864,-8.773313664370496,6.872344211094475,9.039684741025578,39.72871344675311,23.4068571960881,0,0,0,160.65473760456146,1,1,0,0,0
7.036971144966962,0.7618684568946072,0.5946978216625285,7.078093418478496,31.48829481893708,63.72630306603867,0,0,0,110.00510316688249,1,0,0,0,0
3.598926144353456,-9.009313448398565,4.771277277019569,9.701546175945671,25.257090939765884,70.99342174507697,0,0,0,183.66350421723794,1,0,0,0,0
-6.347435858454531,4.347103267422252,0.7198796352669965,7.69332495055471,37.80240675261422,90.79372710979057,0,0,1,185.10993202698924,1,0,0,0,0
7.429910532327877,-9.118614061368277,1.177657960167727,11.762342152759372,27.348223910819563,24.36870469116039,0,0,0,164.22692712103955,1,0,0,0,0
-3.5601132964856186,-3.35201193832442,6.079538652998313,4.889825223715377,26.273090504466772,48.77606499752966,0,0,0,191.84060037332526,0,0,0,0,0
-4.7913739485390465,-6.4276983076156675,9.737454911146578,8.017017515788773,39.09412881761135,32.24524132911806,0,0,1,13.95861532047973,1,1,0,0,1
7.058957181307594,6.38005591341712,9.940259118968953,9.514935099403612,31.713495161104227,74.73655465653127,0,0,0,127.11814649296977,1,0,0,0,0
2.2693891337367553,-8.857658846764052,2.862931204603387,9.143754550838509,25.033723324945406,68.48610049184128,0,0,0,65.05705615080413,1,0,0,0,0
2.3271273189185155,-3.859085826203909,0.16952574525514694,4.50644704534124,15.599749067521827,60.135499395332175,0,0,0,89.55557209378317,0,0,0,0,0
-9.896373214693899,-3.6359510335481815,1.3670489354756683,10.543165687917028,36.252821241550336,92.90206845834678,0,0,0,99.4227333601153,1,0,0,0,0
-7.720737768180708,4.062786348128,3.525246002908574,8.724449816208887,17.720428361564966,88.4435652225325,0,0,1,99.13805958328506,1,0,0,0,0
-0.24279663699025278,-4.746970774341399,0.4366169435680346,4.753175963435938,25.347024758749207,28.120503207884383,0,0,0,143.769236636399,0,0,0,0,0
-9.540299454304568,5.699469136609993,9.31497166161311,11.113112170628618,20.21649195104174,89.20246174733599,0,0,0,34.718002018556696,1,0,0,0,0
9.195319445987494,-8.881623358813691,8.021011177086361,12.784253329842175,30.516841556003268,81.73707685975688,0,0,0,108.8085893750046,1,0,0,0,0
-9.095449047922749,-1.2432768010998174,3.9941892348601953,9.180028899056465,44.891619965144514,42.6153644407802,0,0,0,60.79637284704117,1,1,0,0,0
0.14229674498078992,-2.607355800107274,1.378354642381481,2.6112358438075196,22.738233766599144,37.065810234512014,0,0,0,33.38065425458457,0,0,0,0,0
-5.858938978676964,3.355516964192244,3.9795642722303297,6.751789396363174,27.101364487558723,38.751778398789305,0,0,0,75.42551454451487,1,0,0,0,0
1.605647347778202,-4.08547227101034,5.779826602573024,4.389668220107478,17.80144325981376,44.78886641124573,0,0,0,165.8860596211017,0,0,0,0,0
6.843241313168981,-8.124216896642405,0.37939669071268756,10.622280915789823,44.766841393331006,57.44810031515903,0,1,0,186.9803572317675,1,1,1,0,0
-9.525241078115966,0.1943094816348534,6.475462175378045,9.527222773236755,10.004737009855285,94.11378045939168,0,0,0,82.94638157643982,1,0,0,0,0
-5.4759578435653395,9.053007632464535,6.368261772396895,10.580314810910206,12.900674877458345,79.08695572917895,0,0,0,49.94748082510689,1,0,0,0,0
3.336903702091419,-8.344538389474835,1.1574406083453237,8.987004353534646,36.71014046871515,67.97875328229846,0,0,0,122.8363142108442,1,0,0,0,0
5.36331230346963,-9.80604555288137,9.546056696938807,11.17692481184933,15.041704554535322,89.71084526016895,0,0,0,133.3080333569601,1,0,0,0,0
-1.8803626800041222,-0.9356607904406129,0.3516073212570495,2.1002916281126858,37.6471254941701,69.13540559026663,0,1,0,197.34720683655556,0,0,1,0,0
-3.078908036733738,6.391586277336657,8.707156824685983,7.094508428305788,25.212716912013732,86.82412063636232,0,0,0,173.46095708650557,1,0,0,0,0
-7.485599543767309,8.742796107625647,1.617317448818361,11.5095909705412,11.750384724979943,51.78616042365894,0,0,0,25.81614983923343,1,0,0,0,0
1.0902801449275241,-1.398574417183827,3.9428425708571138,1.773336176483259,12.142026801617435,69.92977862639324,0,0,0,74.0179797041151,0,0,0,0,0
4.285180221152011,3.810378203148934,4.231731797199553,5.734261206012933,14.558779166196878,77.22357616406305,0,0,0,151.2154249161051,1,0,0,0,0
-1.7219138580448607,6.425088534522338,7.566346251836949,6.65182305920545,28.023880330244186,91.23469502974342,0,0,0,87.84409678638647,1,0,0,0,0
-9.035346127687864,4.171703480592466,1.8871584537289199,9.951913865036785,41.14173684272677,34.11874087445792,1,0,0,161.4420787849629,1,1,0,1,0
3.4763689808991423,-2.3361851032482246,3.791183480389529,4.188424778839494,13.003092475614269,59.40036933720035,0,0,0,161.39058140954782,0,0,0,0,0
0.8875379966883798,-0.12525454925275348,8.563323813488646,0.8963327494151562,18.02598520427385,68.38371121235605,0,0,0,130.57197972600028,0,0,0,0,0
3.811399379975489,-8.743287038981649,6.479440331652779,9.537915573106213,27.40318191573782,72.34780958449616,0,0,0,190.8231423065639,1,0,0,0,0
-9.241071925150166,0.06681856911174577,3.077688533923932,9.241313491434902,40.74577069511617,87.67823425934117,0,0,0,171.61423176355743,1,1,0,0,0
4.331181978067329,5.10244686335238,8.796922750899641,6.6928395558589155,27.674213542066067,21.634333901374013,0,0,0,144.80304074727619,1,0,0,0,0
-7.321239905492021,9.66944951533258,2.8907405934391397,12.128429728671982,19.682278410335798,61.55617618341759,0,0,0,61.158298660536516,1,0,0,0,0
1.1517425505491197,-6.860752129911201,7.038929537451141,6.956754321580321,32.16378645090211,24.329322786951607,0,0,0,144.70065681726916,1,0,0,0,0
6.2770650238134245,3.058164088063398,2.767664297827067,6.98240022504457,15.844307694041913,79.53120829459328,0,0,0,96.0111966930155,1,0,0,0,0
0.9086679269222202,8.748975518307489,3.872455812271103,8.796036040249092,32.58203090631062,50.21780477137762,0,0,0,47.03622579312996,1,0,0,0,0
-9.570151351790905,-9.751817574762953,1.4352770986183474,13.663299122380394,15.044873268294346,75.55176615331456,0,0,0,61.07654431815255,1,0,0,0,0
7.013569130902923,6.925559817475456,2.895793324268561,9.856649062403767,14.67611914082866,86.45730474768331,0,0,1,12.703470788688016,1,0,0,0,1
5.180372763620911,3.3638451928523576,8.658028682271558,6.176707573743577,23.061551943851242,70.0357269616058,0,0,0,78.05379646493589,1,0,0,0,0
-9.524569864643661,3.4456309163162953,1.0015650014122273,10.128662474283209,35.29457625070349,84.79157186483734,0,0,0,126.35163699091221,1,0,0,0,0
-6.808479520440054,-8.398530724469452,3.4088641280353706,10.811600793134614,22.55173353833175,50.12101396630125,0,0,0,70.302170744026,1,0,0,0,0
-7.693251338032794,-1.616823437424685,0.27189708296547743,7.861312497156511,16.085227232767146,21.757395805132298,0,0,0,22.15241824154835,1,0,0,0,0
-3.163528355918346,-8.884705679571589,2.679956906609585,9.43111375561291,22.593876955741884,37.23489420185947,0,0,0,103.37464819292167,1,0,0,0,0
-7.004631147022813,-0.6173616087881015,3.331985841882744,7.03178447208442,41.05982561165107,88.97818889828396,0,0,0,162.65303059937355,1,1,0,0,0
-2.6752979367105727,-6.54293536218197,1.6070940382167331,7.068749691696485,18.210733997765697,76.67527744706047,0,0,0,74.714608056348,1,0,0,0,0
9.18202221107833,-7.80177519289669,7.229545028708288,12.048951325540076,18.483566695095952,41.54735356602126,0,0,0,157.80405053647112,1,0,0,0,0
-3.638319906072047,-1.2186027656114202,2.3998762795312554,3.836973343571194,21.473486564687402,58.68997534259318,0,0,0,168.54157789209432,0,0,0,0,0
-9.60250032868893,-4.177094427374883,0.39766151916167003,10.471682310769236,34.06931937008538,22.806444278955645,0,0,0,54.95731576145752,1,0,0,0,0
-6.071392299222394,8.487847258559306,1.0832527101742961,10.435772876777728,35.95463828743029,63.628513752882974,0,0,0,37.05398654339233,1,0,0,0,0
-3.537243444291991,5.047405374165004,9.423764476371808,6.163472413772648,11.099794853787838,57.27531456608893,0,0,0,159.01784415266138,1,0,0,0,0
-4.375030023378146,4.201292012958955,5.009598905148453,6.065619694937434,42.90269252622128,45.52837386567096,0,0,0,32.30243572689848,1,1,0,0,0
4.793677231670168,-7.577623804254703,8.66234859352838,8.966589313682237,19.95727428857115,70.24385041925635,0,0,0,47.025807817630806,1,0,0,0,0
5.860456275732165,-0.6882969444625058,2.719197480220659,5.900737279656242,41.018113357454254,73.56063210544903,0,0,0,41.61661255632428,1,1,0,0,0
0.9343609249286633,-2.673241909004515,6.288444113091618,2.831828498001186,38.10997579577232,59.86823136081595,0,0,0,26.00732690014204,0,1,0,0,0
1.1331698047296292,4.2793113695136356,3.9071709546886066,4.426802412983852,20.89824077260633,79.17228009504927,0,0,0,13.264124879333382,0,0,0,0,0
0.8732931939451944,-6.554195337761564,2.98619778008154,6.612118989259526,32.884670936299884,24.099678526841778,0,0,0,125.83614574530716,1,0,0,0,0
-9.102953032474081,7.889087262013458,6.372803088867303,12.045806396380943,20.323615901892335,91.83532603483059,0,0,1,20.26860899998469,1,0,0,0,0
-8.941266949441145,-0.233247276765713,0.29767712042786315,8.944308746531908,27.538660476418144,45.34934124209896,0,0,0,110.85566911829808,1,0,0,0,0
-5.277779703999268,-0.5171657414152353,9.746368679363378,5.30305751506055,14.564514907936402,89.5079173854859,0,0,0,131.56375010249073,1,0,0,0,0
9.017742314849503,9.59321753821985,6.410321354504298,13.166225700353014,13.023268645393644,48.41950854910733,0,0,1,119.86423007867424,1,0,0,0,0
9.995333250060451,-3.9827604988681653,3.1666031248579007,10.75960352295142,17.56478777933603,59.063021652528136,0,0,1,13.221981991758808,1,0,0,0,1
-3.8845009531036023,4.927066035499912,3.5600629226272766,6.274179418285678,20.376385265456253,84.93927443890809,1,1,0,91.4237563748942,1,0,1,1,0
5.053513796788458,-6.427553960487138,9.70063087255789,8.176273699510382,29.609713204696778,34.506059698893154,0,0,0,179.26354947089126,1,0,0,0,0
-3.3654216773940533,-4.016856778080788,8.286272550463465,5.240343637805385,12.202333804284025,56.832268098501814,0,0,0,89.10541247464906,1,0,0,0,0
9.00486234502674,-4.4270161089229205,3.8139992160991567,10.03424224750148,11.395795192374237,43.180780783524725,0,0,0,22.299651563899154,1,0,0,0,0
-8.190020147715853,1.634648000873204,6.203015227802126,8.351556986978558,31.045317579844223,31.251811559067946,0,0,0,182.52039886150388,1,0,0,0,0
-7.684689735314905,-7.220455406418116,8.818296341060835,10.544639994050383,34.465081455110585,88.48305776714766,0,0,0,109.4531952171098,1,0,0,0,0
-4.4293812655893605,1.3070794406432125,8.053569940166785,4.618211240307894,28.681972041049164,75.68382762667773,0,0,0,167.9731722873063,0,0,0,0,0
-7.051351152526633,-8.847335554289991,7.067420919284027,11.313571473519865,40.82158306986147,61.34826688604221,0,0,0,190.6054327686301,1,1,0,0,0
-6.326140270278762,4.836569906436065,4.959140123248744,7.963194031234302,37.72329185703645,80.9731284272434,0,0,0,160.60196541117537,1,0,0,0,0
3.1673818423458755,2.9067628133304346,2.954469773356631,4.299020561498051,43.27129312381606,42.691766546680455,0,0,1,8.529753503437027,0,1,0,0,1
7.385719985070171,5.055966683401643,0.4480164585239065,8.950511650265158,24.68851264847207,50.99486290263418,0,0,0,168.2786387597117,1,0,0,0,0
-8.343509302002142,2.5489556242565374,4.0234541068602105,8.724180319492788,28.02608237092266,53.29952365764646,0,0,0,163.73203016811198,1,0,0,0,0
-6.309922462355777,-3.3943870506208835,7.407723407417535,7.164983247040061,39.18757252674075,27.338412985919113,0,0,0,101.16564069879854,1,1,0,0,0
6.11228653130366,-8.87692302596606,5.673118686341173,10.77774600970363,35.103766116353846,39.839764184844185,1,0,1,81.98359823740518,1,0,0,1,0
0.2029019546918711,2.16315867039061,2.455552399247687,2.172653823438942,11.546658997522638,56.74400608565361,0,0,1,13.588492193107294,0,0,0,0,1
6.621586554867626,-1.9379115312627277,2.341561034235211,6.899341244394625,17.63008932235113,49.84295496945328,0,0,1,47.81847762377957,1,0,0,0,0
9.990679960143737,-9.91187305118929,4.509079281160197,14.073340522026394,34.416040937461034,88.16930179303704,0,0,0,110.46374995351093,1,0,0,0,0
-8.474779293158774,0.11847683106836726,3.22800456497596,8.475607401670556,44.88062960743756,45.046901403889265,0,0,1,8.28450919430117,1,1,0,0,1
-2.2288956531215165,2.515414232997699,3.7926461434614023,3.360845815575507,25.03465122444723,76.08498164664817,0,0,0,69.24965041947338,0,0,0,0,0
-0.11818823648095567,-1.1801686148977026,9.684548851422209,1.1860718438745774,34.157969012433604,22.66351488778629,0,0,0,48.50767073180832,0,0,0,0,0
4.235398685380488,-1.0821835022605804,0.2956548903684836,4.371466934186709,42.22257715631754,37.35161731867035,0,0,0,54.297979958879864,0,1,0,0,0
-2.4425272173561385,-2.401796737903547,1.6883475713206106,3.4255753936717905,32.92351481225825,85.21257974623816,0,0,0,21.722098417003224,0,0,0,0,0
1.4888025976025254,-9.385361482711861,0.7678262049188441,9.502712419925135,21.63411308406027,72.59223550688114,0,0,0,147.50743222899763,1,0,0,0,0
-0.3456099768162666,6.407623669154287,7.077654297241138,6.41693753605107,31.987813705767838,85.46667087345472,0,0,0,186.56070368996964,1,0,0,0,0
9.53509441919649,8.766866782800989,2.707386989120086,12.952836707469581,24.395630805228087,63.58510172437372,0,0,1,6.771962739534613,1,0,0,0,1
-3.4235181076567534,-2.6409521483293696,0.2707879701462931,4.323783584225648,24.42387240087649,60.735408301731695,0,0,0,184.09166070208363,0,0,0,0,0
-4.891317522583258,4.6933673258367925,2.0559458563797914,6.778840901065789,20.641367849693317,52.12024232071271,0,0,0,67.91703207588287,1,0,0,0,0
6.601705009811958,-6.80548627119042,0.697072788990707,9.481410887834025,12.669216457676328,33.600943981424535,0,0,0,54.97904018387773,1,0,0,0,0
-2.7581748673447333,4.458844889849022,5.112074699897087,5.242978766940114,35.7658136753749,71.33383234018967,0,0,0,178.8985830455558,1,0,0,0,0
1.3007209340153363,-4.3931683138287125,3.637327997595367,4.581681217829797,37.29862341170485,35.97352380881076,0,0,0,126.44945069797258,0,0,0,0,0
7.554355293863704,-2.6776128133070465,5.585247551139976,8.014854601545348,16.826346426809543,81.12927464680712,0,0,0,61.03148153800044,1,0,0,0,0
-3.128354935289974,-2.272418075398912,8.300252757496425,3.8665861571356244,31.497032521240367,54.95381383298487,0,0,1,13.75146290277449,0,0,0,0,1
9.245820430457613,5.256009559597498,6.59319420463448,10.635357630227942,44.08975433363787,42.051130202375944,0,0,1,158.54132527019775,1,1,0,0,0
8.795129790900035,-6.870384548503383,3.6717464454063546,11.160487976925172,32.639386791209944,47.94386060163609,0,0,0,67.19862496911603,1,0,0,0,0
-5.238970782925188,7.04185924925515,9.807890620698483,8.776935487438886,21.760313767533223,74.91191498280726,0,0,0,131.8962284281347,1,0,0,0,0
8.544613470477621,-5.128421818734492,4.571879348162515,9.965496962557342,40.716233196280584,38.58939373207693,0,1,0,93.5144876738886,1,1,1,0,0
-6.3161727994716905,-8.54678153327821,2.675606061801012,10.627394478910222,17.465704919975234,29.398606291375664,0,0,0,94.89265683768095,1,0,0,0,0
7.770076187605532,-6.473676260306664,6.149203581400485,10.113484477886571,38.81433345347823,28.97471122937201,0,0,0,133.96631599409932,1,1,0,0,0
-1.039763280583836,-5.239800507521853,3.851275544367068,5.3419675250114285,26.023299573757644,78.11492690203158,0,0,0,72.08262948248814,1,0,0,0,0
6.285771546952411,5.260174479955717,0.49468486716448223,8.196362577390893,36.27137447588599,28.37931979115704,0,0,0,159.39274449792867,1,0,0,0,0
-7.214849255005502,8.988163981735877,2.742198559118899,11.525673148889291,22.18141676043783,31.90064052355878,0,0,0,164.56567688612083,1,0,0,0,0
-3.751105661148138,-3.7424264920246397,5.46326394748069,5.298730954606532,17.76344195222907,74.20073169807418,0,0,0,133.33308368063322,1,0,0,0,0
2.7598592339265906,-7.564720717173263,6.214554133907771,8.052442022139635,35.7062041605309,80.98549933386903,0,0,0,56.61773556128529,1,0,0,0,0
-5.182162150003213,-5.9895864587641,3.180903651608739,7.9202241442989605,44.34412345045962,36.31665546369183,0,0,0,183.47888323182917,1,1,0,0,0
-0.5312910369356771,6.647562374955122,0.16515164001391514,6.668759681893415,43.521010371410995,57.33945287966053,0,0,0,101.07912603172308,1,1,0,0,0
-9.685067872124096,0.030930090659902376,2.8157868399149337,9.685117260940034,33.04708622771895,60.81611046832521,0,0,0,111.862403588892,1,0,0,0,0
-5.415182146936674,3.9772194966557457,8.436771497490279,6.718814821758394,25.533267225093567,39.12343976094178,0,0,1,82.79806146002065,1,0,0,0,0
-2.5290027271278426,-5.636021625853525,3.771957313049449,6.1774262084551586,13.890602277355043,67.03885521685115,0,0,0,103.06211019638809,1,0,0,0,0
-7.825596878777759,-9.847598578294088,0.6712003563013811,12.578360953174938,32.44307647588096,91.16554767367963,0,0,0,74.86404304024279,1,0,0,0,0
-3.017651234126621,-7.608206278134578,0.2349381581272858,8.184804319070329,31.241148930847068,66.99532217081307,1,0,0,199.68373332132194,1,0,0,1,0
9.274680933783948,7.882474964504976,5.313041081989858,12.171816544359482,17.21451478222711,34.05182006610329,0,0,0,174.82772911172643,1,0,0,0,0
2.5140567655894035,-4.9689810071843326,3.9328815902538667,5.568774880560757,39.702492476646825,20.068070306067348,0,0,0,140.0122935017424,1,1,0,0,0
-6.194528042245233,0.19691720942119773,3.1403800980355814,6.197657142302146,40.537784329368876,80.96843094324562,0,0,0,130.89389905431148,1,1,0,0,0
-7.18194812439497,5.850530099189486,0.7271978009063489,9.263319129935153,41.515741493857504,78.22861455913741,0,0,0,156.9594387977338,1,1,0,0,0
1.9406398128423419,-5.5308295813875485,4.099060277218837,5.861412691624804,10.047847120719187,92.32395433382514,1,0,0,75.87090810564189,1,0,0,1,0
-9.411383638786429,4.402670621735915,3.2272521659395474,10.390267109170649,37.261509884873064,94.62289830160071,1,0,0,53.27822931822459,1,0,0,1,0
-8.04656960496998,-1.3723661177668944,5.545778290054493,8.162761246589374,13.071514932176479,57.34217333112982,0,0,0,30.68400249478583,1,0,0,0,0
-3.8084908012823764,-2.233542207884655,4.51626927967656,4.415123212080807,17.09498329963876,65.42183815296133,0,0,0,85.5161085727352,0,0,0,0,0
0.36356731870206715,1.4117623706643094,2.543040649268367,1.4578251563380025,28.864549318244297,36.392049900822485,0,0,0,172.8917318631668,0,0,0,0,0
-2.2797627767802258,-2.1163109646356464,8.565623689029998,3.110641480053551,24.68608889937508,59.790547322570156,0,0,0,120.92622583376496,0,0,0,0,0
7.418158827082635,-5.398516387814121,1.6839877785624162,9.174587705903827,18.159649696088056,57.69276874781216,1,0,1,7.061328191215838,1,0,0,1,1
2.2242333720091665,6.972817324370368,0.1848256400456632,7.318975032898992,37.397466646146455,22.771748247775825,0,0,0,101.10478768203242,1,0,0,0,0
-9.970448490390236,-1.7523549463031642,0.9117338421652497,10.123269775984344,21.844237511752674,24.424627522250493,0,0,0,35.17493616447274,1,0,0,0,0
6.324498241544099,2.059762397362059,5.309468700745841,6.651458422096697,13.666676237265225,72.27006586251082,0,0,0,95.00972687049592,1,0,0,0,0
-5.520182391153396,0.877979149315264,0.44895745440902723,5.589567158397185,27.591961728427403,48.847777562401944,0,0,0,174.5208059306653,1,0,0,0,0
-2.351409063889016,2.31126520278214,4.782165428731116,3.2971307865068056,30.1938360115434,69.55206743396295,0,0,0,66.10251852663627,0,0,0,0,0
-6.8637742604316765,-7.92441333894913,6.099728677027916,10.48368846659797,35.4804114211295,54.20669456497864,0,0,1,21.850002355342273,1,0,0,0,0
8.556980332314673,5.763799475417377,9.147952330898887,10.317136075502821,21.611048056383762,24.97930427224103,0,1,0,199.91313451991493,1,0,1,0,0
-5.717787587066827,9.291106585472054,8.697331746214884,10.909525950902617,29.588827678541527,28.256014843581635,0,0,0,113.15508348023816,1,0,0,0,0
4.0870787417697905,4.279157751482373,8.966006921803118,5.917381490448136,11.874204180171313,20.118402178447653,0,0,0,88.73224400143063,1,0,0,0,0
-7.243125509247719,9.419159487850926,8.04987674845206,11.882063482421188,22.31159254988527,27.57652656223473,0,0,0,38.251301124627496,1,0,0,0,0
-1.129657442416093,-3.3635564894576593,1.2960120234045975,3.548188015731241,25.03537231117037,85.37462003057003,0,0,0,186.79827287607438,0,0,0,0,0
-6.5871077523598265,-6.38582619040781,6.57449354279478,9.174353638011631,26.410420827661113,46.736701743979964,0,0,0,195.71914156324408,1,0,0,0,0
3.71208031956116,3.0707397329328536,2.702758735865968,4.817570218096028,25.634336971457508,64.20048186129397,0,0,0,147.65351831131008,0,0,0,0,0
-8.623101601678213,3.983664521685281,8.797477725184354,9.498813834063672,39.63492291904353,90.50760577801688,0,0,0,183.6366207062951,1,1,0,0,0
5.732354261404062,3.5900095414083886,1.2607282708173473,6.763730766791399,30.235061988205967,49.23650244312502,0,0,1,184.90585576058544,1,0,0,0,0
7.717380443166107,1.2021666342062254,8.014601528757344,7.810452324991263,21.830564131157416,48.67614686317408,0,0,0,45.59688046919176,1,0,0,0,0
-5.499066715640295,8.719383400068239,7.344295200589905,10.308607162000524,38.89830618023088,72.61878457350417,0,0,0,121.55071802417342,1,1,0,0,0
-5.434106697989893,-8.441717391596937,5.722712731487227,10.03952728591983,39.172865258915635,83.08594091770007,0,0,0,101.79078561093685,1,1,0,0,0
-0.7544976601072158,-2.449093861819007,8.718419230394508,2.5626797425950048,18.990769098174507,52.319056295145685,0,0,0,133.60282108802983,0,0,0,0,0
6.223252071132123,6.031794136804077,7.10996626060898,8.66668372848775,11.850670114976747,94.04153815257116,0,0,0,133.82385486615695,1,0,0,0,0
6.752996565931717,8.952001483467548,5.547309844364619,11.213442521344225,35.759036296862455,42.78276344541456,0,0,0,150.62824630872245,1,0,0,0,0
4.016304733967015,7.823416002969651,3.4045936211967454,8.79411972124598,23.17915614292603,71.39629371715529,0,0,0,170.49176725348707,1,0,0,0,0
-9.283094781291183,7.893051073340121,8.303375526067331,12.185077101306796,18.53538654670389,94.8792789328638,0,0,0,108.83026331405387,1,0,0,0,0
-2.376449642772805,-1.1339096587910653,9.835776711175903,2.633109192368342,20.66472387898053,66.35382075680798,0,0,0,140.12961998140742,0,0,0,0,0
-5.594431826898263,8.921234770716072,4.804963822528879,10.530246782485474,30.368111555123228,82.65394927204488,1,0,1,9.320818364691075,1,0,0,1,1
-8.207686405339148,8.149441034564308,6.803323447322408,11.566309061417547,43.49345847444625,37.107939197007354,0,0,0,96.62604286618829,1,1,0,0,0
1.917345406508531,8.325477312174709,9.101626314662774,8.54340598844484,24.413956853321345,57.06447696953043,0,1,0,113.83929987035759,1,0,1,0,0
4.110470431052956,-1.5265631127682884,3.7782490012116394,4.384787577731159,27.941052744043095,38.56362923040584,0,0,0,148.34745774241858,0,0,0,0,0
5.496370483670468,-8.764877055879857,2.656838283389448,10.345683075488688,30.926032160183023,50.35004895793684,0,0,0,89.89587758724053,1,0,0,0,0
-3.6176954712613725,8.746393748160976,8.03012438273818,9.465047497009957,37.805429448693346,30.94803589634661,0,0,0,154.5531760758538,1,0,0,0,0
-5.096041766582857,5.819373734288975,0.6856673316972073,7.7352926477341075,27.06851812643443,39.14186164668463,0,0,0,116.18429554049267,1,0,0,0,0
0.44268547017584226,3.2312279026999224,3.1059910312518695,3.2614113792484605,44.727580170629935,27.14998957285857,0,0,0,21.796623899555687,0,1,0,0,0
-9.381190967363901,-6.370403204190717,2.2854702800502507,11.33969933243882,10.135324055117534,90.64666748445642,0,0,0,152.84202222853366,1,0,0,0,0
2.047735421132387,2.843088465329295,8.447719117836959,3.5037654568547705,33.69585076714388,30.7035226961316,0,0,0,73.11594118130988,0,0,0,0,0
-6.971222081914115,0.23425379125942491,3.3837477590442915,6.975156783477083,19.737498619510223,93.76457573380871,0,0,0,56.595125061923035,1,0,0,0,0
3.686162934586285,8.687177214109784,0.4051534842802035,9.436887470435684,15.672736732390625,66.2971869558342,1,0,0,75.77850091199197,1,0,0,1,0
-2.45494954442647,0.676429951653521,0.5219970585107679,2.5464356942938333,37.59777382194709,58.68181320503873,0,0,1,142.00052157417065,0,0,0,0,0
1.2384038918987486,1.2563268675138346,2.728796300450177,1.7640865617953931,15.45354752237743,41.88553920422756,0,0,0,33.43836965186281,0,0,0,0,0
-9.10895259804617,0.18327569162178037,4.717099249762673,9.110796200804378,15.831346378068172,67.73049713502182,0,0,0,85.7571881223703,1,0,0,0,0
-5.437783230319599,4.611746945155479,9.033738269075096,7.130055844528565,22.012151042685584,37.11584698392061,0,0,0,174.29276966734136,1,0,0,0,0
1.2405041373259866,2.697702716935355,9.690918180022614,2.9692508253233316,12.4524024027106,24.807797513713062,0,0,0,154.02224480326245,0,0,0,0,0
8.543785202606724,5.392611759223298,1.5195757618887982,10.103292887667614,18.243376096454483,68.97736471545225,0,0,1,162.83921764634675,1,0,0,0,0
-3.0164022619863307,-1.4891349925808441,5.992630443574796,3.3639568416145003,23.15748644453841,92.89022419115989,1,0,0,169.49989419244247,0,0,0,1,0
9.385286279652739,-3.5850293716112924,2.2231873411539396,10.046692696920395,28.21491898909914,80.54189008107275,0,0,0,42.5784701289826,1,0,0,0,0
1.852265281689192,-6.131016177827979,1.239822374133819,6.404704992936017,14.79204010026644,91.2350574912085,0,0,0,144.47994501399785,1,0,0,0,0
-4.533206820351509,4.629712619434606,9.746632399553224,6.479521819905655,36.30700253423028,73.87553666047197,0,0,0,55.779702095045444,1,0,0,0,0
-0.423451024970106,-8.074342799348244,9.175483697039557,8.085438912757617,20.984852623011665,20.4112583696636,0,0,0,167.10246062425406,1,0,0,0,0
-2.4822511835704297,-7.373538578323824,9.050252361218801,7.7801440927765935,32.734061893184276,90.61872062827653,0,0,0,190.74697588610604,1,0,0,0,0
7.556032948927648,-3.5413087039554414,8.443680756196478,8.344728950780295,40.38083273855692,85.37529766478194,0,0,0,168.01850162576744,1,1,0,0,0
9.839777248389204,-4.894983517446425,6.2348604890488835,10.990090078520284,35.50067557644221,75.26831969113559,0,0,0,168.3501890761405,1,0,0,0,0
-2.9569423521970855,1.0844805512454343,5.608337985884041,3.149540623685688,28.527242590121382,40.99403628255993,0,0,1,5.177193982204352,0,0,0,0,1
7.2479538753968775,-2.5819699593768135,8.485302127095308,7.694114910176799,28.856441204330547,85.76561694452359,0,0,1,36.82824470838375,1,0,0,0,0
-1.7915425992855543,-8.913093511158936,6.232846324324393,9.091361879483093,33.44035729624123,23.03614442977144,0,0,0,192.95905943951564,1,0,0,0,0
-7.133730053760177,6.119790265235167,0.36916721126528873,9.399039172723363,24.197983099396723,85.09203597299147,0,0,0,62.53574661988259,1,0,0,0,0
1.3294861608397408,-6.052828752463264,8.36188766481293,6.197117826740943,18.686802811466727,38.13929139144298,0,0,0,89.92132529540633,1,0,0,0,0
9.084799174532765,8.29947486937537,2.3340105153770723,12.30507452837993,33.482303695833224,62.80420626036033,0,0,0,138.98068503770264,1,0,0,0,0
-5.725770608099838,-9.820694886623718,8.246288509992713,11.367959232542015,29.648660179110085,75.68368964751613,0,0,0,189.0708064440213,1,0,0,0,0
6.237938010307012,7.023780995502154,2.682905966473556,9.393900685722105,18.938327004122748,51.509697498795944,0,0,0,20.136181212141068,1,0,0,0,0
-3.994794410127298,6.563302126428905,2.0420524060368495,7.683444356665212,31.763509798203447,50.196100511670465,0,0,0,140.64405839007472,1,0,0,0,0
1.924568016398453,5.175677450283253,9.09719502398262,5.521919876194731,28.58663598940723,66.62773805413038,0,0,0,159.13476346000866,1,0,0,0,0
4.782651364856619,-0.053353439100501276,5.669154893491925,4.782948950932754,28.779823054228878,36.274262601420574,0,0,0,60.708733627905076,0,0,0,0,0
-6.884745857186239,-3.54834770069486,2.0151743174527534,7.745353247145645,43.545552182150224,58.22339900427472,0,0,0,136.05697363458424,1,1,0,0,0
-1.6293589846290324,-3.4604280006419312,1.1131280351468578,3.8248362904074815,16.785450825944395,64.49869717214764,0,0,0,153.44582837004768,0,0,0,0,0
8.364202638058412,-4.523406072184748,9.042697007514464,9.509000381973973,42.240889604024744,50.18196378104813,0,0,0,146.02465537575353,1,1,0,0,0
-1.6434163274652551,8.372402970456221,6.562966486930845,8.532171395669659,30.18690823976349,39.56949852932213,0,0,0,44.61113733548053,1,0,0,0,0
-0.6161272637774662,1.0776533624175695,7.020406200010669,1.2413499001892259,16.050983738476578,52.554699967499275,0,0,0,150.01430099502446,0,0,0,0,0
9.690833853296816,-5.663541082742405,4.544684058783686,11.224435770590636,43.364224369115966,54.175872754664454,0,0,0,192.8139424332627,1,1,0,0,0
-5.295834355689475,4.728498288247991,8.456576751834175,7.0996167209832635,18.123518548779536,42.748595717486566,0,0,0,81.8525543464023,1,0,0,0,0
1.7446930955326767,-0.4503910259345183,3.385785990414728,1.8018895842536362,33.752020684639945,90.09627251860024,0,0,0,55.94321271923311,0,0,0,0,0
1.73398048940728,-5.495887975852334,0.6821527540620916,5.762939612798609,43.4806930532214,69.53248132840021,0,0,0,47.581243521421634,1,1,0,0,0
9.114604438346106,-6.422881767728221,3.984853098095614,11.150310501045885,13.479784569682604,38.66768744016188,0,0,0,199.48762282286177,1,0,0,0,0
-0.8136340018617876,6.962074858597976,6.7733628565256545,7.009456942282166,35.60354825039314,56.19890770323245,0,0,0,27.639399513116786,1,0,0,0,0
-1.3835377930585135,-0.19098111099891746,8.198146996942974,1.396656940547536,37.26998887971041,25.19444162635713,0,0,0,196.1538757153299,0,0,0,0,0
-4.379064625727091,-1.9935302433674966,1.2869791136838487,4.811483121399806,23.693718426597464,34.52251634996332,1,0,0,156.0430915372496,0,0,0,1,0
-5.156498120063933,9.051299508002081,9.423663181746566,10.417077116244345,22.633834048594622,37.58166201271748,0,0,0,25.7116023663469,1,0,0,0,0
-0.004939408347874874,7.488405283685257,6.092248591491029,7.488406912720495,30.941084849308638,55.67620038340727,0,0,0,36.78033900050082,1,0,0,0,0
-6.227278948843389,-0.37775052888205884,0.27486076229944545,6.238725716745264,24.936888248913498,68.7460831482787,0,0,0,105.28103815371924,1,0,0,0,0
-2.606781289535636,9.327827399403905,3.361326198784253,9.685229614446076,11.72099372768329,50.727973290630956,0,0,0,163.14229386465757,1,0,0,0,0
-1.423594231147229,-2.626712919788745,9.935481632221812,2.987681592462755,38.488044718227655,85.48943856829189,0,0,0,105.2303425979693,0,1,0,0,0
2.2412446187228348,-2.4634222883517864,2.9773583464018283,3.3304094060193887,28.86289509131785,91.89671785848418,0,0,0,51.1833339140342,0,0,0,0,0
5.831273652321837,-1.8050221421201922,7.6002849983690695,6.104249121866425,28.664035700474408,77.13937553820949,0,0,0,139.55286879656956,1,0,0,0,0
-9.36968259627167,5.38765596278958,9.287304765707809,10.808227825516,42.62873916362434,76.69367451407868,0,0,0,196.7150194719402,1,1,0,0,0
9.067978804619507,-0.0637288887138876,3.0512889646455137,9.068202742125107,26.173714921068534,60.81229811472171,0,0,0,97.6213110007408,1,0,0,0,0
2.2936837158575667,4.900412850711609,3.0078549489864006,5.410640543947607,14.572987032750456,90.9229459650225,0,0,0,41.19125282384811,1,0,0,0,0
-6.8185668033083875,1.7714498765988562,4.184315402907946,7.044919298081509,21.545570693127903,67.09133029749789,0,0,0,174.28463349226342,1,0,0,0,0
-6.356824328292996,-7.006786221660546,0.6724264322514486,9.460669569159984,38.84639884310316,50.01144214389965,0,0,0,142.27741261273147,1,1,0,0,0
-4.0503541525665065,-3.455555651996411,9.281179223503276,5.324118107748652,36.50565223089919,44.92047458196193,0,0,0,155.25142822248412,1,0,0,0,0
3.2574586193836197,-4.5862435879595065,0.16814728150270614,5.625359268979744,18.71151507820702,89.72600028633525,0,0,0,95.10740547749552,1,0,0,0,0
1.1827078126031605,-6.355170908229846,9.611255871196784,6.4642861201221224,30.384781597278597,91.04970479078361,0,0,0,198.38930257317475,1,0,0,0,0
7.263349846446772,9.240873141820188,6.99556147254956,11.75372227913745,43.83967229341637,55.97469377962821,0,0,0,173.36031425045618,1,1,0,0,0
3.0751743201682213,3.64340916775744,2.9293392216566807,4.76771721719326,37.060928974662104,32.31089049769848,0,0,1,5.907782672059277,0,0,0,0,1
9.175526253006282,-6.691998739563722,6.161878131051244,11.356633706778164,44.42411697118299,48.72130602217186,1,0,0,137.7372568365127,1,1,0,1,0
-5.823591555714649,-2.9896264793075744,1.146443383323951,6.5461504026082356,20.55358385109588,40.92957536188633,0,0,1,30.35553122182155,1,0,0,0,0
1.549315294557518,3.61957140047501,0.5153262654328281,3.9372166571178777,37.99893174736359,27.506877678289968,1,0,0,45.84605440406109,0,0,0,1,0
-9.715498784055907,4.044891272822939,5.547965883821231,10.523880559563139,28.116528942361427,51.01616501246401,0,1,0,93.66702783331267,1,0,1,0,0
8.732405673157462,0.7874460195535775,2.1793652286718075,8.767837822080391,16.583429762920126,57.340490245008326,0,0,0,79.9751603010593,1,0,0,0,0
1.9890273813126633,8.470365146764681,1.8478466904798276,8.700765233192847,38.930401873383644,28.23253402702966,0,0,0,55.09079042579745,1,1,0,0,0
1.0256942063455181,-1.600382167335333,0.3247960470908444,1.9008607751373323,31.227196286790473,45.49119735168901,0,0,0,81.77998761236675,0,0,0,0,0
0.6685078642405777,-6.853357681530552,7.697278555070885,6.885885148297589,38.042953560441916,31.81703058659848,0,0,1,24.456724909119803,1,1,0,0,0
-2.222624139110698,0.36276101022711416,0.8295471817281405,2.2520332178497204,27.737346381691825,55.30365204003082,0,0,0,64.77063507496474,0,0,0,0,0
-7.312614665010802,1.463728295432423,6.236080208549259,7.4576694591394,44.830580532027916,26.965466921725465,0,0,0,75.23066625384352,1,1,0,0,0
4.9674181160533575,3.18082855405353,2.2338705112132176,5.898551773950734,19.775466254158157,25.951884929631674,0,0,0,145.47105235986876,1,0,0,0,0
1.3514371393525852,2.45993074707995,4.827864022896084,2.806713669409621,33.16363442356838,53.282636766665874,0,1,0,186.67655136549226,0,0,1,0,0
9.401771114491392,1.1442693472136831,0.30439038353335385,9.471148421826022,36.56885842375215,67.53629555204422,0,0,0,110.88818253869871,1,0,0,0,0
1.4641631887886355,-5.505297394708721,7.372185006284418,5.696672120421741,41.429501187533816,63.96441380942372,0,0,0,33.5413824787161,1,1,0,0,0
-7.811086590093064,7.233166594818709,9.810313321324289,10.645739650504936,14.053076889078119,70.47724661308274,0,0,0,55.9030302115589,1,0,0,0,0
5.184584991973489,-7.078673688810908,4.684343533785801,8.774254539940163,41.6647606602092,42.69133672494064,0,0,0,129.9172231844039,1,1,0,0,0
2.283414514843189,4.694733235951052,0.49682468780615086,5.220584450359939,31.69377493506677,28.35267816650984,0,0,0,81.25848751526571,1,0,0,0,0
-2.0063732627072284,-7.836109730389021,6.283409734285305,8.088890491037937,33.266636702465966,35.081133017279285,0,0,0,64.54224384364403,1,0,0,0,0
-7.054395679704482,-9.268049663679914,4.020982578172055,11.647370646384987,13.420315807747293,62.25794057584916,0,0,0,127.55501507703626,1,0,0,0,0
